CTI3   

DESCRIPTOR "Argyll Calibration Target chart information 3"
ORIGINATOR "Argyll dispread"
CREATED "Wed May 01 17:28:17 2019"
DEVICE_CLASS "DISPLAY"
SINGLE_DIM_STEPS "33"
COMP_GREY_STEPS "97"
DARK_REGION_EMPHASIS "1.6"
COLOR_REP "RGB_XYZ"
TARGET_INSTRUMENT "X-Rite i1 DisplayPro, ColorMunki Display"
DISPLAY_TYPE_REFRESH "NO"
DISPLAY_TYPE_BASE_ID "1"
INSTRUMENT_TYPE_SPECTRAL "NO"
LUMINANCE_XYZ_CDM2 "202.571729 216.086284 243.409391"
NORMALIZED_TO_Y_100 "YES"
VIDEO_LUT_CALIBRATION_POSSIBLE "YES"

BEGIN_ARGYLL_COLPROF_ARGS
-v -qh -aX -bl -C "No copyright. Created with DisplayCAL 3.8.0.0 and ArgyllCMS 2.1.0_mod" -M "madVR"
END_ARGYLL_COLPROF_ARGS

OBSERVER "1931_2"
USE_BLACK_POINT_COMPENSATION "NO"
BLACK_POINT_CORRECTION "0.0"
HIRES_B2A "NO"
HIRES_B2A_SIZE "-1"
SMOOTH_B2A "YES"
PATCH_SEQUENCE "OPTIMIZE_DISPLAY_RESPONSE_DELAY"
3DLUT_HDR_MAXMLL_ALT_CLIP "1"
3DLUT_HDR_SAT "0.5"
3DLUT_HDR_PEAK_LUMINANCE "480.0"
3DLUT_HDR_MAXMLL "10000.0"
3DLUT_GAMUT_MAPPING_MODE "G"
3DLUT_HDR_MINMLL "0.0"
3DLUT_SOURCE_PROFILE "ref/Rec709.icm"
3DLUT_RENDERING_INTENT "aw"
3DLUT_HDR_DISPLAY "0"
3DLUT_FORMAT "madVR"
3DLUT_HDR_AMBIENT_LUMINANCE "5.0"
3DLUT_APPLY_CAL "1"
3DLUT_SIZE "65"
3DLUT_GAMMA "-2.4"
3DLUT_INPUT_ENCODING "t"
3DLUT_OUTPUT_ENCODING "t"
3DLUT_INPUT_BITDEPTH "10"
3DLUT_TRC "bt1886"
3DLUT_OUTPUT_BITDEPTH "12"
3DLUT_DEGREE_OF_BLACK_OUTPUT_OFFSET "0.0"
3DLUT_HDR_HUE "0.5"
3DLUT_CONTENT_COLORSPACE_WHITE_X "0.3127"
3DLUT_CONTENT_COLORSPACE_WHITE_Y "0.329"
3DLUT_CONTENT_COLORSPACE_RED_X "0.68"
3DLUT_CONTENT_COLORSPACE_RED_Y "0.32"
3DLUT_CONTENT_COLORSPACE_GREEN_X "0.265"
3DLUT_CONTENT_COLORSPACE_GREEN_Y "0.69"
3DLUT_CONTENT_COLORSPACE_BLUE_X "0.15"
3DLUT_CONTENT_COLORSPACE_BLUE_Y "0.06"

NUMBER_OF_FIELDS 7
BEGIN_DATA_FORMAT
SAMPLE_ID RGB_R RGB_G RGB_B XYZ_X XYZ_Y XYZ_Z
END_DATA_FORMAT

NUMBER_OF_SETS 1545
BEGIN_DATA
1 100.00000 100.00000 100.00000 93.745760 100.00000 112.64450
2 1.9608000 1.9608000 1.9608000 0.0966421 0.0983632 0.1716710
3 3.9216000 3.9216000 3.9216000 0.1167950 0.1195940 0.1948320
4 5.8824000 5.8824000 5.8824000 0.1903920 0.1977380 0.2766760
5 9.8039000 9.8039000 9.8039000 0.5355940 0.5654310 0.6605360
6 13.726000 13.726000 13.726000 1.2018660 1.2747180 1.3973650
7 17.647000 17.647000 17.647000 2.0791180 2.2108300 2.3685020
8 21.569000 21.569000 21.569000 3.1979300 3.4022820 3.6048720
9 25.490000 25.490000 25.490000 4.5620400 4.8556900 5.1169260
10 29.412000 29.412000 29.412000 6.1537110 6.5508890 6.8763860
11 33.333000 33.333000 33.333000 8.0499310 8.5728930 8.9766340
12 37.255000 37.255000 37.255000 10.159560 10.808180 11.316940
13 41.176000 41.176000 41.176000 12.464050 13.273240 13.915610
14 45.098000 45.098000 45.098000 15.004590 15.984550 16.768570
15 49.020000 49.020000 49.020000 17.829320 19.013090 19.948790
16 52.941000 52.941000 52.941000 21.054940 22.481950 23.577160
17 56.863000 56.863000 56.863000 24.724260 26.372960 27.734510
18 60.784000 60.784000 60.784000 28.819520 30.794120 32.425180
19 64.706000 64.706000 64.706000 33.468390 35.760280 37.733710
20 68.627000 68.627000 68.627000 38.442180 41.079740 43.484620
21 72.549000 72.549000 72.549000 43.722370 46.751870 49.590470
22 76.471000 76.471000 76.471000 49.446280 52.846170 56.225390
23 80.392000 80.392000 80.392000 55.689570 59.558200 63.481910
24 84.314000 84.314000 84.314000 62.378590 66.657790 71.354340
25 88.235000 88.235000 88.235000 69.367160 74.129430 79.670740
26 92.157000 92.157000 92.157000 76.804230 82.062610 88.781690
27 96.078000 96.078000 96.078000 85.161640 90.934740 99.393320
28 39.056800 25.776300 38.698100 8.5104800 6.7727130 11.697090
29 39.232800 31.981600 44.735500 10.281030 9.1127690 15.822440
30 42.241900 48.794100 61.852500 18.083130 18.646370 32.855990
31 0.0000000 1.4451000 0.0000000 0.0930139 0.0957643 0.1682010
32 0.0000000 2.9412000 0.0000000 0.0961739 0.1019880 0.1690530
33 31.292100 14.958300 16.408300 3.7407980 2.6948270 1.8796610
34 58.569800 29.686300 21.378100 14.015390 10.841920 3.8406680
35 76.198400 39.870100 37.902900 26.736410 20.321110 11.988010
36 100.00000 50.589000 46.203300 48.404140 35.706520 18.518900
37 4.4910000 0.0000000 0.0000000 0.1092420 0.1022940 0.1678250
38 6.0976000 0.0000000 0.0000000 0.1324870 0.1145390 0.1686850
39 7.7640000 0.0000000 0.0000000 0.1917290 0.1451610 0.1675940
40 9.4937000 0.0000000 0.0000000 0.2439880 0.1720690 0.1678060
41 11.290300 0.0000000 0.0000000 0.3452840 0.2247410 0.1673950
42 13.157900 0.0000000 0.0000000 0.4772030 0.2931530 0.1675340
43 15.100700 0.0000000 0.0000000 0.6051580 0.3598050 0.1672970
44 17.123300 0.0000000 0.0000000 0.8124200 0.4670840 0.1672420
45 19.230800 0.0000000 0.0000000 1.0328580 0.5815800 0.1662860
46 21.428600 0.0000000 0.0000000 1.3022370 0.7212410 0.1667980
47 23.722600 0.0000000 0.0000000 1.6067040 0.8792390 0.1653090
48 26.119400 0.0000000 0.0000000 1.9630260 1.0640510 0.1652040
49 28.625900 0.0000000 0.0000000 2.3932410 1.2873560 0.1644370
50 31.250000 0.0000000 0.0000000 2.8528660 1.5261180 0.1631270
51 34.000000 0.0000000 0.0000000 3.3850610 1.8022860 0.1626170
52 36.885200 0.0000000 0.0000000 4.0052630 2.1237210 0.1616240
53 39.916000 0.0000000 0.0000000 4.7294880 2.5000700 0.1601450
54 43.103500 0.0000000 0.0000000 5.5257530 2.9129130 0.1581060
55 46.460200 0.0000000 0.0000000 6.4556830 3.3956990 0.1564460
56 50.000000 0.0000000 0.0000000 7.5268080 3.9513730 0.1547130
57 53.738300 0.0000000 0.0000000 8.8069650 4.6163130 0.1524510
58 57.692300 0.0000000 0.0000000 10.354920 5.4210300 0.1496850
59 61.881200 0.0000000 0.0000000 12.209430 6.3793120 0.1453830
60 66.326500 0.0000000 0.0000000 14.397980 7.5186700 0.1419320
61 71.052600 0.0000000 0.0000000 16.930770 8.8313670 0.1375110
62 76.087000 0.0000000 0.0000000 19.951930 10.401180 0.1333220
63 81.460700 0.0000000 0.0000000 23.354810 12.163810 0.1259420
64 81.537200 0.0000000 20.195800 23.947020 12.368280 2.9236110
65 86.017100 0.0000000 54.579300 30.809070 15.133840 23.769110
66 100.00000 0.0000000 84.217600 49.639590 23.297240 66.564080
67 100.00000 0.0000000 100.00000 56.197420 25.192110 103.57130
68 100.00000 100.00000 100.00000 93.770570 99.981360 112.64160
69 0.0000000 4.4910000 0.0000000 0.1102980 0.1303030 0.1723390
70 0.0000000 6.0976000 0.0000000 0.1342720 0.1782560 0.1772860
71 0.0000000 7.7640000 0.0000000 0.1931430 0.2952500 0.1907670
72 0.0000000 9.4937000 0.0000000 0.2492750 0.4074470 0.2028080
73 0.0000000 11.290300 0.0000000 0.3434210 0.5947770 0.2231050
74 0.0000000 13.157900 0.0000000 0.4739820 0.8551300 0.2511430
75 0.0000000 15.100700 0.0000000 0.6019220 1.1106640 0.2785780
76 0.0000000 17.123300 0.0000000 0.7899250 1.4853520 0.3186980
77 0.0000000 19.230800 0.0000000 1.0225680 1.9489460 0.3691090
78 0.0000000 21.428600 0.0000000 1.2650560 2.4325420 0.4216920
79 0.0000000 23.722600 0.0000000 1.5620810 3.0255810 0.4863120
80 0.0000000 26.119400 0.0000000 1.9059600 3.7102200 0.5595190
81 0.0000000 28.625900 0.0000000 2.2904960 4.4786720 0.6432730
82 0.0000000 31.250000 0.0000000 2.7465100 5.3884500 0.7404430
83 0.0000000 34.000000 0.0000000 3.2717400 6.4365230 0.8545680
84 0.0000000 36.885200 0.0000000 3.8588590 7.6482950 0.9862590
85 0.0000000 39.916000 0.0000000 4.5782940 8.9857720 1.1290870
86 0.0000000 43.103500 0.0000000 5.3332770 10.537030 1.2964600
87 0.0000000 46.460200 0.0000000 6.2086680 12.335100 1.4918880
88 0.0000000 50.000000 0.0000000 7.2291880 14.361200 1.7107170
89 0.0000000 53.738300 0.0000000 8.4982090 16.826880 1.9777610
90 0.0000000 57.692300 0.0000000 10.033480 19.910660 2.3106720
91 0.0000000 61.881200 0.0000000 11.792080 23.452770 2.6943910
92 0.0000000 66.326500 0.0000000 13.936230 27.716510 3.1557040
93 0.0000000 71.052600 0.0000000 16.346780 32.598350 3.6836150
94 0.0000000 76.087000 0.0000000 19.245780 38.413350 4.3117980
95 0.0000000 81.460700 0.0000000 22.651320 45.196790 5.0484660
96 0.0000000 87.209300 0.0000000 26.709300 53.319970 5.9317460
97 24.859300 100.00000 51.238100 42.616640 76.736940 28.470640
98 28.432700 100.00000 73.999400 48.149750 78.483930 56.335360
99 41.327100 100.00000 83.665200 54.015370 80.920020 72.932220
100 23.019800 85.296900 100.00000 45.612850 57.793830 109.07230
101 48.937000 91.404400 100.00000 56.029470 69.751460 110.13550
102 46.973600 100.00000 100.00000 62.656840 84.041880 111.75690
103 60.891900 33.356000 100.00000 33.658930 18.454130 104.33860
104 68.168900 47.147100 100.00000 40.760450 27.172970 105.12740
105 76.060100 68.537300 100.00000 53.998130 47.111040 106.73600
106 0.0000000 0.0000000 13.157900 0.2609810 0.1449440 1.1243580
107 0.0000000 0.0000000 15.100700 0.3149380 0.1614390 1.4283910
108 0.0000000 0.0000000 17.123300 0.4025660 0.1879540 1.9249540
109 0.0000000 0.0000000 19.230800 0.5015750 0.2178640 2.4864460
110 0.0000000 0.0000000 21.428600 0.6148890 0.2527580 3.1262010
111 0.0000000 0.0000000 23.722600 0.7498510 0.2938750 3.8875230
112 0.0000000 0.0000000 26.119400 0.9052530 0.3409760 4.7672850
113 0.0000000 0.0000000 28.625900 1.0930430 0.3985010 5.8285790
114 0.0000000 0.0000000 31.250000 1.2896700 0.4583200 6.9402630
115 0.0000000 0.0000000 34.000000 1.5270750 0.5306130 8.2807510
116 0.0000000 0.0000000 36.885200 1.8012020 0.6141330 9.8328530
117 0.0000000 0.0000000 39.916000 2.1202990 0.7115020 11.638370
118 0.0000000 0.0000000 43.103500 2.4759230 0.8199690 13.645650
119 0.0000000 0.0000000 46.460200 2.8873280 0.9447840 15.974450
120 0.0000000 0.0000000 50.000000 3.3724610 1.0906430 18.709760
121 0.0000000 0.0000000 53.738300 3.9500250 1.2677710 21.982430
122 0.0000000 0.0000000 57.692300 4.6384080 1.4766160 25.874110
123 0.0000000 0.0000000 61.881200 5.4833570 1.7328220 30.650190
124 0.0000000 0.0000000 66.326500 6.4817970 2.0379030 36.310850
125 0.0000000 0.0000000 71.052600 7.6714300 2.3963820 43.032540
126 0.0000000 0.0000000 76.087000 9.0971910 2.8235070 51.080680
127 0.0000000 0.0000000 81.460700 10.692200 3.3042590 60.101710
128 0.0000000 0.0000000 87.209300 12.691400 3.9034900 71.422080
129 0.0000000 0.0000000 93.373500 15.132820 4.6257250 85.218190
130 0.0000000 88.908600 100.00000 46.569130 62.252890 109.14140
131 0.0000000 100.00000 100.00000 55.355170 80.160710 111.08650
132 26.753700 100.00000 100.00000 57.743210 81.485140 111.67720
133 1.4451000 0.0000000 0.0000000 0.0941048 0.0944918 0.1683480
134 2.9412000 0.0000000 0.0000000 0.0966727 0.0956141 0.1683830
135 2.4366000 2.4366000 2.4366000 0.1000020 0.1011710 0.1763860
136 2.9412000 2.9412000 2.9412000 0.1032100 0.1050140 0.1799880
137 3.4517000 3.4517000 3.4517000 0.1095410 0.1117740 0.1874800
138 3.9683000 3.9683000 3.9683000 0.1189310 0.1215480 0.1977840
139 4.4910000 4.4910000 4.4910000 0.1386770 0.1448300 0.2175960
140 5.0201000 5.0201000 5.0201000 0.1659500 0.1723910 0.2497460
141 5.5556000 5.5556000 5.5556000 0.1724600 0.1791710 0.2570670
142 6.0976000 6.0976000 6.0976000 0.1982670 0.2092490 0.2836570
143 6.6462000 6.6462000 6.6462000 0.2282830 0.2377870 0.3206530
144 7.2016000 7.2016000 7.2016000 0.2779470 0.2960080 0.3703370
145 7.7640000 7.7640000 7.7640000 0.3461720 0.3661420 0.4501090
146 8.3333000 8.3333000 8.3333000 0.4086130 0.4295580 0.5158900
147 8.9099000 8.9099000 8.9099000 0.4393980 0.4615900 0.5585340
148 9.4937000 9.4937000 9.4937000 0.4875750 0.5180580 0.6076010
149 10.084900 10.084900 10.084900 0.6051380 0.6484620 0.7355760
150 10.683800 10.683800 10.683800 0.6968140 0.7339440 0.8463950
151 11.290300 11.290300 11.290300 0.7323200 0.7800670 0.8793460
152 11.904800 11.904800 11.904800 0.8669260 0.9176150 1.0391240
153 12.527200 12.527200 12.527200 0.9355750 0.9923060 1.1125150
154 13.157900 13.157900 13.157900 1.0613910 1.1417500 1.2393340
155 13.796900 13.796900 13.796900 1.2134290 1.2930190 1.4193940
156 14.444400 14.444400 14.444400 1.2929790 1.3712670 1.5156380
157 15.100700 15.100700 15.100700 1.3907730 1.4929470 1.6051910
158 15.765800 15.765800 15.765800 1.5342280 1.6367250 1.7782420
159 16.439900 16.439900 16.439900 1.6825280 1.7900440 1.9487970
160 17.123300 17.123300 17.123300 1.8788820 2.0154490 2.1526180
161 17.816100 17.816100 17.816100 2.1057200 2.2563180 2.4020040
162 18.518500 18.518500 18.518500 2.3066020 2.4631320 2.6374850
163 19.230800 19.230800 19.230800 2.4846740 2.6435650 2.8476780
164 19.953100 19.953100 19.953100 2.6922630 2.8695540 3.0753720
165 20.685600 20.685600 20.685600 2.9077210 3.1015070 3.3047290
166 21.428600 21.428600 21.428600 3.1444370 3.3646270 3.5640720
167 22.182200 22.182200 22.182200 3.3745140 3.6144380 3.8165250
168 22.946900 22.946900 22.946900 3.6283090 3.8901100 4.0957370
169 23.722600 23.722600 23.722600 3.9060630 4.1863700 4.4067380
170 24.509800 24.509800 24.509800 4.1712170 4.4725210 4.7011650
171 25.308600 25.308600 25.308600 4.4834260 4.8033920 5.0520240
172 26.119400 26.119400 26.119400 4.7990320 5.1361700 5.4099920
173 26.942400 26.942400 26.942400 5.1133200 5.4652760 5.7695200
174 27.777800 27.777800 27.777800 5.4810220 5.8493460 6.1944470
175 28.625900 28.625900 28.625900 5.8636730 6.2411970 6.6276170
176 29.487200 29.487200 29.487200 6.1656690 6.5962030 6.9804740
177 30.361800 30.361800 30.361800 6.5616400 7.0354580 7.4039010
178 31.250000 31.250000 31.250000 7.0089810 7.4950350 7.8936230
179 32.152200 32.152200 32.152200 7.4391740 7.9227910 8.4010140
180 33.068800 33.068800 33.068800 7.8790730 8.4310720 8.8665460
181 34.000000 34.000000 34.000000 8.3576420 8.9236620 9.4101120
182 34.946200 34.946200 34.946200 8.8623680 9.4518130 10.000360
183 35.907900 35.907900 35.907900 9.3710680 10.014770 10.531630
184 36.885200 36.885200 36.885200 9.9558700 10.649660 11.269560
185 37.878800 37.878800 37.878800 10.461490 11.212520 11.786150
186 38.888900 38.888900 38.888900 11.136280 11.880600 12.552120
187 39.916000 39.916000 39.916000 11.702400 12.514830 13.201340
188 40.960500 40.960500 40.960500 12.331560 13.200980 13.872220
189 42.022800 42.022800 42.022800 13.033580 13.904670 14.689920
190 43.103500 43.103500 43.103500 13.635390 14.574820 15.430810
191 44.202900 44.202900 44.202900 14.410360 15.419680 16.284360
192 45.321600 45.321600 45.321600 15.157650 16.228920 17.083900
193 46.460200 46.460200 46.460200 15.974450 17.109880 18.058730
194 47.619100 47.619100 47.619100 16.815820 18.006730 18.950350
195 48.798800 48.798800 48.798800 17.675710 18.904220 19.930110
196 50.000000 50.000000 50.000000 18.578220 19.926770 21.001590
197 51.223200 51.223200 51.223200 19.624910 20.999430 22.158930
198 52.469100 52.469100 52.469100 20.716240 22.162550 23.495440
199 53.738300 53.738300 53.738300 21.874830 23.323420 24.829650
200 55.031400 55.031400 55.031400 23.013650 24.626850 26.080740
201 56.349200 56.349200 56.349200 24.231360 25.948030 27.507320
202 57.692300 57.692300 57.692300 25.644760 27.390400 29.109320
203 59.061500 59.061500 59.061500 27.021870 28.940100 30.627450
204 60.457500 60.457500 60.457500 28.556800 30.525290 32.496630
205 61.881200 61.881200 61.881200 30.199610 32.267900 34.367800
206 63.333300 63.333300 63.333300 31.738120 34.011510 36.064840
207 64.814800 64.814800 64.814800 33.637750 36.001030 38.291230
208 66.326500 66.326500 66.326500 35.485840 37.919440 40.427960
209 67.869400 67.869400 67.869400 37.504970 40.086380 42.834020
210 69.444400 69.444400 69.444400 39.634000 42.376130 45.329500
211 71.052600 71.052600 71.052600 41.779510 44.701120 47.825630
212 72.695000 72.695000 72.695000 44.016400 47.148300 50.323010
213 74.372800 74.372800 74.372800 46.418710 49.720180 53.174240
214 76.087000 76.087000 76.087000 49.035200 52.413890 56.288920
215 77.838800 77.838800 77.838800 51.679400 55.390460 59.235130
216 79.629600 79.629600 79.629600 54.564310 58.351060 62.882580
217 81.460700 81.460700 81.460700 57.551070 61.572900 66.269750
218 83.333300 83.333300 83.333300 60.675850 64.972790 69.924710
219 85.249000 85.249000 85.249000 64.059440 68.584980 74.022240
220 87.209300 87.209300 87.209300 67.536400 72.284750 78.208400
221 89.215700 89.215700 89.215700 71.165880 76.232410 82.575650
222 91.269800 91.269800 91.269800 75.226460 80.497700 87.649650
223 93.373500 93.373500 93.373500 79.527320 84.974640 93.077980
224 80.646500 29.731100 0.0000000 25.460940 16.783740 0.6437360
225 100.00000 52.585400 16.137000 46.338950 36.111170 3.5132320
226 73.122000 69.460900 0.0000000 33.920650 40.491100 3.4668660
227 100.00000 77.707000 0.0000000 58.059710 60.114100 4.4839710
228 100.00000 100.00000 0.0000000 75.107760 94.407660 8.2762710
229 100.00000 100.00000 50.911800 78.743420 95.564400 29.081560
230 53.757000 0.0000000 100.00000 27.071760 10.092030 103.28460
231 69.906900 0.0000000 100.00000 34.680400 13.995920 103.71080
232 86.894000 21.011100 100.00000 46.991920 22.251440 104.13950
233 100.00000 23.306300 100.00000 57.854400 28.380450 103.83050
234 100.00000 40.805200 100.00000 61.237570 35.291480 104.67430
235 0.0000000 71.626200 85.253300 29.044680 37.778470 71.116550
236 0.0000000 73.361600 100.00000 36.589290 41.991230 107.29170
237 50.862300 78.937700 100.00000 47.994510 52.823230 108.19440
238 0.0000000 43.172000 61.689900 10.978290 12.710310 31.708180
239 39.974000 57.796900 62.528400 20.951520 24.885710 34.477150
240 47.087400 78.725300 67.096500 34.915420 48.060870 42.825010
241 100.00000 84.191800 100.00000 81.290850 75.257670 109.24880
242 0.0000000 0.0000000 1.4451000 0.0921300 0.0931954 0.1707860
243 0.0000000 0.0000000 2.9412000 0.0934394 0.0937178 0.1778650
244 0.0000000 0.0000000 4.4910000 0.1002490 0.0960260 0.2138440
245 0.0000000 0.0000000 6.0976000 0.1091800 0.0986192 0.2648760
246 0.0000000 23.075200 11.832800 1.6567240 2.9838170 1.2505940
247 14.935700 27.427100 0.0000000 2.6343610 4.3920130 0.6027170
248 26.014900 35.130700 0.0000000 5.4353330 7.8994450 0.8984230
249 36.716100 64.112300 0.0000000 16.905120 27.634920 2.9058750
250 39.724500 76.788800 0.0000000 24.572650 41.854770 4.3979910
251 54.924000 100.00000 21.755100 47.544100 79.920510 11.553480
252 48.736900 100.00000 0.0000000 44.749360 78.607970 8.3028760
253 61.429300 100.00000 55.654500 54.151130 82.687180 32.961790
254 63.400000 100.00000 69.177800 57.991600 84.010500 49.556580
255 49.691500 40.528600 29.920200 13.564440 13.861830 7.6918470
256 62.976400 78.161700 34.452800 35.413410 48.762810 13.528120
257 73.951600 100.00000 35.492500 57.891950 84.980430 17.788150
258 0.0000000 25.046100 56.471100 6.2044890 4.9079820 25.202270
259 0.0000000 27.945000 69.363100 9.5007580 6.6896170 41.209750
260 0.0000000 46.819100 73.463000 14.861330 15.622300 48.091240
261 84.499600 47.757300 83.227300 43.896690 30.457150 65.863580
262 85.412200 0.0000000 67.719100 33.149470 15.758090 39.443270
263 84.959600 0.0000000 82.211500 36.860490 16.798030 62.505510
264 0.0000000 0.0000000 100.00000 18.398430 5.5700680 103.57980
265 22.057900 0.0000000 100.00000 19.648540 6.2257640 103.29690
266 24.301100 28.265200 100.00000 22.387440 11.150480 103.82560
267 43.467200 63.672800 100.00000 37.245740 34.786500 106.13120
268 53.899400 72.231500 100.00000 45.148320 45.420120 107.49340
269 82.820600 90.181200 100.00000 72.245720 76.984380 109.59790
270 100.00000 92.341100 100.00000 87.123930 87.091770 110.27580
271 0.0000000 0.0000000 9.4937000 0.1582800 0.1136190 0.5451270
272 18.504300 0.0000000 16.353100 1.2444990 0.6306730 1.7624390
273 28.384900 0.0000000 20.160100 2.8274000 1.4101990 2.8716870
274 34.102800 47.794700 22.978800 10.848460 15.402260 5.2325830
275 44.153400 70.231700 43.460800 24.747760 36.264950 17.944850
276 0.0000000 86.746800 36.693900 28.281590 53.625650 15.514600
277 0.0000000 100.00000 53.582300 41.040650 75.893050 30.038180
278 0.0000000 100.00000 67.538800 43.952660 76.848600 46.294970
279 64.250400 100.00000 93.556400 66.353350 86.619520 94.073500
280 0.0000000 26.265400 50.294500 5.3352650 4.9563670 19.290490
281 23.531000 42.810500 53.606300 10.965220 12.864770 23.467230
282 64.916700 72.407200 61.212300 36.863400 43.737610 34.630610
283 0.0000000 31.435900 21.572800 3.4161700 5.8210060 3.7934330
284 0.0000000 100.00000 21.158500 37.785290 75.020780 11.269320
285 28.195300 100.00000 36.127800 41.303340 76.412490 18.001960
286 31.196000 0.0000000 88.542600 16.036760 5.5067140 74.744930
287 42.054700 18.567400 100.00000 24.748770 10.271220 104.07410
288 51.079700 44.521700 100.00000 32.521830 21.848930 104.85290
289 0.0000000 15.796300 35.112900 2.2346510 1.7406190 9.0732520
290 0.0000000 22.475200 40.382900 3.5542350 3.4713410 12.265370
291 49.080600 40.416500 66.331000 18.871870 15.547920 38.206510
292 65.050700 50.214400 66.852700 28.188140 24.345840 39.547950
293 0.9579000 0.9579000 0.9579000 0.0935429 0.0951209 0.1700210
294 23.674700 46.670200 0.0000000 7.8806450 13.337140 1.5077720
295 47.904600 55.779900 0.0000000 16.277160 22.030110 2.1307030
296 70.485800 58.198900 0.0000000 27.006130 29.048010 2.3237800
297 76.613100 77.253900 94.246600 56.369360 56.118100 91.992510
298 95.528500 95.528500 95.528500 83.929390 89.715790 98.587320
299 0.0000000 42.660600 100.00000 23.944390 16.675430 104.76770
300 0.0000000 58.499400 100.00000 29.195760 27.174360 105.58900
301 30.273000 70.997600 100.00000 37.987950 40.694010 106.93540
302 50.422400 0.0000000 35.908300 9.3471610 4.5335710 9.7433260
303 63.178900 0.0000000 37.977900 14.778170 7.2950020 11.068690
304 72.780000 27.914300 43.723100 23.003370 14.659230 15.273110
305 100.00000 38.203300 54.517100 46.490750 29.584290 25.137280
306 33.309600 11.967000 0.0000000 3.6399120 2.3851020 0.2284450
307 44.667200 13.552100 0.0000000 6.5158400 4.0516370 0.2483560
308 55.750100 38.301100 41.684700 16.433650 14.378600 14.241690
309 64.429500 47.619500 48.589900 23.644810 21.570500 19.819970
310 93.373500 0.0000000 0.0000000 32.412980 16.876240 0.1174810
311 100.00000 0.0000000 22.027400 38.517900 19.920420 3.6230570
312 100.00000 0.0000000 40.575500 40.365640 20.516150 13.090570
313 100.00000 21.091500 41.508900 41.500620 22.847630 13.967460
314 100.00000 0.0000000 0.0000000 37.889610 19.722490 0.1216210
315 100.00000 0.0000000 13.711600 38.237570 19.855810 1.3585420
316 100.00000 0.0000000 60.815000 43.469920 21.432380 31.149280
317 100.00000 34.998500 62.953100 47.358390 28.627920 34.291470
318 100.00000 70.040800 65.701700 60.594730 53.946520 40.607740
319 100.00000 70.641100 89.667700 68.188670 57.004620 81.253370
320 100.00000 91.673300 91.770200 82.686910 84.802270 88.768030
321 87.209300 0.0000000 0.0000000 27.543250 14.343030 0.1217560
322 100.00000 33.926300 0.0000000 41.126950 26.054170 0.8014550
323 100.00000 38.353700 15.128200 42.342390 28.219640 2.4799080
324 100.00000 37.216000 25.146600 42.793600 27.981600 5.6928450
325 100.00000 37.717100 35.206900 43.751910 28.502600 10.650390
326 0.0000000 0.0000000 7.7640000 0.1367770 0.1069520 0.4212450
327 0.0000000 14.709400 26.156700 1.4079160 1.3376400 4.8841830
328 0.0000000 17.778700 45.619000 3.6253330 2.5597810 15.646850
329 0.0000000 18.221500 57.294700 5.4683160 3.2027560 25.775970
330 0.0000000 71.847600 64.753100 23.253410 36.146860 38.063200
331 52.475500 100.00000 75.717600 55.169360 82.215790 59.311740
332 71.758700 100.00000 81.501100 65.924770 87.349330 69.340930
333 72.493700 47.272200 0.0000000 24.416940 22.125590 1.5091410
334 72.370100 65.619600 41.306300 34.094260 37.608450 16.183900
335 88.561300 100.00000 60.727200 71.442730 91.350390 38.813420
336 100.00000 100.00000 64.058200 81.234760 96.294230 43.282730
337 18.731500 13.760400 0.0000000 1.4481880 1.4433790 0.2613600
338 20.285400 18.762300 0.0000000 2.0821160 2.4286080 0.3564550
339 56.954700 34.546400 0.0000000 13.659320 11.990660 0.8609870
340 68.856000 40.124800 19.911800 21.107420 17.796280 3.8730640
341 0.0000000 9.3330000 17.830200 0.5935920 0.5075180 2.1612370
342 0.0000000 17.552800 17.934700 1.2271230 1.7599400 2.3363720
343 0.0000000 21.339700 15.860500 1.5567040 2.5826000 1.8762640
344 0.0000000 25.842100 27.983300 2.8976420 4.0747200 5.9627670
345 0.0000000 55.788500 33.651800 10.957220 19.329410 10.228100
346 0.0000000 74.816600 59.283800 23.777550 39.185880 31.761810
347 0.0000000 100.00000 89.825800 50.863470 78.908240 85.273260
348 30.179600 23.760800 0.0000000 4.2213080 4.4234390 0.4827580
349 42.080200 28.371300 0.0000000 7.6195010 7.2072510 0.6274720
350 100.00000 46.434100 0.0000000 44.078230 31.972160 1.4426900
351 100.00000 67.575900 0.0000000 52.499170 48.709590 3.2441060
352 100.00000 75.010200 33.462700 58.317540 57.845490 12.850090
353 100.00000 85.920500 44.002600 66.523070 72.427680 21.104580
354 100.00000 100.00000 84.662100 87.057120 98.024140 75.830780
355 0.0000000 50.093100 54.848600 11.630270 16.256470 24.694800
356 0.0000000 59.014800 55.051600 15.009750 22.900360 25.616860
357 0.0000000 63.572200 66.728600 19.399600 27.656710 39.640340
358 0.0000000 0.0000000 0.0000000 0.0915765 0.0928351 0.1677840
359 0.4762000 0.4762000 0.4762000 0.0917782 0.0931288 0.1679850
360 28.431100 29.104600 16.564400 5.1038080 6.1074960 2.3296480
361 29.138700 55.208300 45.125800 14.524070 20.639210 17.547760
362 100.00000 62.396800 45.029200 52.908040 44.964760 18.801140
363 100.00000 82.258300 59.718600 66.568260 68.187370 34.857210
364 100.00000 91.264500 71.128700 75.893460 82.172210 51.524660
365 25.470300 0.0000000 37.557600 3.7321910 1.5834890 10.665450
366 43.535200 0.0000000 40.614500 7.8597750 3.6527220 12.608150
367 100.00000 0.0000000 70.874100 45.740570 22.098110 44.444660
368 100.00000 17.293200 78.626500 48.710200 24.340030 56.916560
369 100.00000 54.963800 79.215900 57.311520 41.247550 59.713870
370 68.682100 19.061500 32.960300 18.237430 10.617010 8.4065480
371 79.098100 31.157700 57.457100 29.534750 18.474980 27.295370
372 0.0000000 0.0000000 11.290300 0.2042230 0.1276500 0.8002040
373 12.549500 0.0000000 19.877100 0.8912600 0.4085070 2.7895080
374 14.685200 0.0000000 27.457300 1.5070060 0.6267190 5.4520510
375 35.604100 9.7991000 35.555300 5.6475130 2.8940830 9.5227780
376 1.4451000 1.4451000 1.4451000 0.0948454 0.0964691 0.1714330
377 1.9380000 1.9380000 1.9380000 0.0967622 0.0982312 0.1738380
378 36.882900 0.0000000 18.760000 4.4456840 2.2655540 2.4850730
379 55.985100 0.0000000 19.589500 10.122410 5.2020260 2.7426820
380 71.819600 0.0000000 24.557800 18.098090 9.2803550 4.4485720
381 71.247900 0.0000000 62.329200 22.701370 10.613960 32.190130
382 0.0000000 63.989600 29.142200 14.081420 26.256130 8.8109280
383 0.0000000 75.986300 40.114200 21.526160 39.507160 15.888660
384 0.0000000 93.373500 0.0000000 31.499520 63.109940 6.9917290
385 0.0000000 100.00000 0.0000000 37.062440 74.445740 8.2808220
386 85.009100 100.00000 0.0000000 63.415660 88.331770 8.2705200
387 87.549400 100.00000 22.542800 65.923210 89.589600 11.923090
388 100.00000 100.00000 36.066000 76.921060 95.024920 18.472830
389 67.314000 100.00000 0.0000000 52.678840 82.821870 8.2984480
390 77.612800 100.00000 100.00000 76.867340 91.192280 111.81270
391 90.079000 100.00000 100.00000 85.684980 95.930950 112.05190
392 97.736600 97.736600 97.736600 88.555090 94.626810 104.92040
393 49.092900 0.0000000 63.184700 13.079730 5.5793280 33.201640
394 57.904600 0.0000000 75.391400 19.440200 8.2002880 50.798010
395 28.519100 15.438900 29.108300 4.0688220 2.7560890 6.3670040
396 30.481600 26.778600 31.692400 6.0954630 5.8880520 7.8715640
397 35.282500 30.907200 73.973300 15.095000 10.118100 48.878680
398 39.032600 32.974100 92.143200 22.577900 13.328000 83.458850
399 0.0000000 13.608600 72.103400 8.4566080 3.4092430 44.871170
400 0.0000000 15.450900 100.00000 19.025840 6.7541230 103.61670
401 0.0000000 25.232100 100.00000 20.268860 9.2708480 103.84220
402 0.0000000 34.334100 100.00000 22.013030 12.676810 104.43710
403 28.014200 47.232000 100.00000 27.514460 20.405470 104.70940
404 63.436800 12.223400 34.386700 15.039600 7.9997910 9.0046790
405 65.153800 24.253800 61.875700 21.218740 12.270940 31.937120
406 100.00000 63.288000 77.499100 60.359790 48.191180 57.711730
407 51.755000 53.074600 33.492900 18.283980 21.686450 10.280450
408 64.216500 65.357400 37.190500 29.142390 34.951150 13.546470
409 81.818400 68.202700 40.948300 41.228640 43.320050 16.277240
410 17.076600 8.9734000 0.0000000 0.9594700 0.7473550 0.1967700
411 20.550900 12.294400 8.9009000 1.6040070 1.3421900 0.5676480
412 24.084500 19.697000 17.372900 3.0713700 3.0639340 2.3130190
413 23.405800 33.218600 48.281000 7.9616310 8.1919450 18.582050
414 30.231000 48.389600 63.552300 15.602520 17.167200 34.854920
415 54.368900 59.855600 70.049800 28.030230 29.527930 44.896320
416 0.0000000 31.551600 14.531400 3.0897560 5.7216970 1.9385540
417 0.0000000 41.218500 14.211600 5.2215300 9.9507140 2.4082370
418 76.114500 83.570600 21.237600 45.073670 59.275400 8.5268100
419 87.164300 83.787300 27.936500 53.191320 63.642570 11.190370
420 46.779600 38.937400 0.0000000 11.043680 12.047400 1.0725290
421 87.244000 40.651600 0.0000000 32.367650 23.723290 1.1251750
422 100.00000 57.440900 0.0000000 47.689010 39.333560 2.2382340
423 100.00000 76.503300 20.152800 58.144780 59.310370 7.2725600
424 0.0000000 75.128000 23.014000 19.575240 38.032740 7.7617190
425 16.914900 81.939800 72.616000 32.196170 49.461160 51.039060
426 0.0000000 45.870700 43.733200 8.7681590 13.238470 15.478310
427 0.0000000 48.322900 60.735200 12.229610 15.506810 30.920090
428 0.0000000 50.496600 100.00000 26.240340 21.240660 104.95610
429 0.0000000 11.864600 59.760800 5.4099960 2.2654760 28.371880
430 0.0000000 20.896300 70.334900 8.7118750 4.7237740 42.341420
431 41.545400 23.168100 71.593700 14.707540 8.1815510 45.016130
432 24.221800 6.7823000 31.568400 3.0573720 1.4499890 7.3824190
433 32.460100 8.2930000 40.435200 5.4511740 2.6023370 12.438030
434 100.00000 0.0000000 30.871300 39.324180 20.194000 7.4829120
435 100.00000 20.737300 31.720800 40.467780 22.447160 8.2008600
436 42.407800 28.937000 11.849600 7.9883570 7.5937040 1.4620860
437 42.684300 51.216000 12.740000 13.521890 18.429540 2.7125420
438 41.543300 60.801200 18.957800 17.209820 25.782660 5.0309200
439 23.664200 55.931900 36.793000 12.962750 20.460740 12.232250
440 26.906400 63.682300 47.401700 18.121820 27.806460 20.007430
441 27.990300 73.517600 47.091300 23.391230 38.199000 20.823110
442 37.303200 83.698800 56.519900 33.333900 52.590940 30.749140
443 52.959900 84.769000 63.827100 40.089670 56.925990 39.362240
444 0.0000000 19.775300 25.232500 1.8767450 2.3712970 4.6673280
445 0.0000000 21.167100 32.473700 2.5884480 2.8743710 7.7699150
446 0.0000000 39.865800 84.584700 16.545310 13.103950 67.263810
447 0.0000000 57.474500 85.985300 22.540380 24.267670 71.182120
448 0.0000000 65.415700 85.656100 25.991570 31.381940 71.232680
449 16.206000 14.581600 21.258300 1.7472590 1.5576040 3.3210900
450 22.325100 17.681000 26.817500 3.1710360 2.6804610 5.4212070
451 25.881900 54.558400 28.852400 11.986350 19.270830 8.0276520
452 16.214800 38.451900 0.0000000 4.8824010 8.7090010 1.0613090
453 24.258000 40.955600 10.033100 6.6906860 10.608480 1.7135570
454 23.890300 41.820000 18.163000 7.1755190 11.188970 3.4169730
455 30.973800 49.129200 43.330800 12.611030 16.642470 15.936560
456 65.015600 83.246800 51.413300 41.886100 56.712930 25.928690
457 75.767500 87.977300 51.847200 51.282750 66.563040 27.125180
458 56.098700 85.791800 0.0000000 35.737100 56.576850 5.6871330
459 71.870800 89.608200 0.0000000 46.332810 66.307510 6.2969940
460 73.429000 100.00000 19.412100 56.555860 84.729380 10.870000
461 100.00000 100.00000 20.606500 75.586300 94.608850 11.343180
462 28.143500 38.397700 31.722700 7.9623220 10.230940 8.3652980
463 36.180500 44.764600 39.722500 12.036320 14.567330 13.329900
464 37.936100 55.404900 55.652500 18.157940 22.334910 26.632030
465 55.356400 63.098200 61.405000 27.799230 31.885910 33.830690
466 100.00000 20.787700 0.0000000 39.069910 21.971270 0.3620060
467 100.00000 21.400000 13.637100 39.375850 22.228990 1.5942020
468 100.00000 74.565200 84.548400 68.549610 60.822590 71.525050
469 100.00000 74.786000 100.00000 75.185470 63.275840 107.51930
470 41.653200 11.045800 83.185000 16.883220 6.7354190 64.281210
471 57.552100 11.808700 83.813100 22.410940 9.6489870 65.622700
472 67.638800 36.970900 90.648000 33.420840 20.386710 80.253910
473 16.778500 20.180400 28.316400 2.8633300 2.9092110 6.0872520
474 32.558000 40.045500 28.543400 8.9679030 11.359710 7.0368800
475 40.765600 41.794800 33.615900 11.713830 13.343700 9.5349050
476 21.200300 0.0000000 78.332100 11.053820 3.6709160 55.323720
477 30.210400 11.480200 80.645300 13.543070 5.2303060 59.546940
478 34.918900 28.856400 81.410800 16.924520 10.057910 61.466190
479 23.829900 61.625600 74.159400 22.220400 27.427470 50.928430
480 29.010200 74.601700 75.709600 30.344800 41.600910 55.059610
481 57.525600 16.004600 0.0000000 11.078310 6.6590590 0.2760530
482 71.406500 17.610500 0.0000000 18.127140 10.579810 0.3019930
483 86.548300 19.655200 0.0000000 28.111040 16.087550 0.3335120
484 87.096200 84.778900 100.00000 71.405070 70.722350 109.10760
485 0.0000000 14.804500 85.438700 12.684920 4.7929330 68.310550
486 0.0000000 23.245100 85.494700 13.680170 6.7533590 68.523300
487 74.363400 0.0000000 86.927800 31.584420 13.708100 71.735650
488 85.446900 0.0000000 100.00000 44.620100 19.168670 103.81300
489 13.671500 46.785500 90.201500 20.970050 17.657660 79.554930
490 25.805100 55.336900 100.00000 29.834840 25.633030 105.12620
491 24.360000 63.403200 100.00000 33.166920 32.499010 106.32070
492 0.0000000 30.763400 83.913000 14.352290 9.0775620 65.656750
493 27.984300 38.370700 100.00000 25.214230 15.705800 104.56730
494 87.608200 64.154000 100.00000 59.593680 46.790520 105.88610
495 100.00000 64.553800 100.00000 69.706350 52.277550 106.37410
496 59.191700 0.0000000 47.931100 14.197370 6.7417720 17.880500
497 0.0000000 11.889800 10.783500 0.5089310 0.7538520 0.8082990
498 10.433800 13.003300 21.977500 1.2895510 1.1525370 3.5031100
499 22.642500 56.797900 58.276200 16.217980 22.026760 29.410020
500 30.486400 72.885200 82.576500 31.764510 40.412700 66.720160
501 55.701000 81.142300 82.290300 43.797450 54.158300 67.436350
502 37.685300 20.485500 17.265700 5.7871620 4.6109660 2.3648620
503 42.835900 23.409600 30.953800 8.3365150 6.3168670 7.4285170
504 42.086100 29.151600 30.048900 9.0163330 8.0123260 7.2685400
505 42.946800 37.091400 34.506500 11.234580 11.431790 9.8476470
506 26.202100 100.00000 0.0000000 39.205020 75.640720 8.2906730
507 32.090500 100.00000 21.267600 40.925020 76.486760 11.377760
508 54.102600 100.00000 38.258900 48.615810 80.193360 19.437840
509 87.129300 100.00000 43.773400 67.625680 89.994720 23.156640
510 37.337000 43.662700 0.0000000 9.6661690 13.045370 1.3238410
511 54.119100 50.027600 0.0000000 16.423400 19.214410 1.6890440
512 57.930300 65.106800 46.780000 27.291650 33.604170 19.902650
513 80.095200 72.969900 53.543300 44.520810 48.499260 26.687190
514 90.298900 80.176700 56.215000 56.646320 61.193600 30.372370
515 43.189200 48.530200 23.024600 13.348690 17.042060 5.3268300
516 51.726800 50.644500 74.868300 24.900490 22.446310 51.436600
517 32.470200 25.297700 43.471300 7.5075560 6.0338000 14.811750
518 41.423500 26.093200 50.770200 10.708100 7.6798590 20.496990
519 10.985900 31.486400 39.883800 5.2405960 6.4940160 12.490110
520 21.975800 35.959100 43.911100 7.7209070 9.0523050 15.482110
521 26.836200 52.257300 49.752400 13.756070 18.537040 20.868130
522 33.436500 60.613900 55.328500 19.155630 26.044160 26.620690
523 49.386200 77.520000 74.449700 36.828420 47.579470 53.528320
524 64.170100 81.536600 78.120400 46.562040 56.246800 60.333590
525 47.245400 38.172700 14.656400 11.305960 12.058460 2.3183720
526 58.773100 48.859400 21.833700 18.695190 19.975140 4.9711920
527 67.848800 54.340900 34.451100 25.920340 26.280160 10.938690
528 81.863000 56.416500 47.647800 36.758490 32.794790 19.926990
529 41.328900 0.0000000 13.949800 5.3134160 2.7593430 1.3546140
530 52.897400 0.0000000 24.791800 9.2690310 4.6952950 4.4967210
531 57.755900 11.863000 25.411000 11.700550 6.4185490 4.8234880
532 60.289800 25.843400 46.723600 16.576040 10.771710 17.333980
533 81.186100 63.781300 56.788100 40.948300 39.421510 28.783610
534 80.901000 66.381400 64.989200 43.815040 42.493760 38.885040
535 61.585600 21.032100 10.335300 13.598900 8.8035240 0.9766290
536 78.212300 26.617800 20.488600 23.951630 15.290710 3.4805780
537 63.144900 26.086700 0.0000000 14.863780 10.452890 0.5379620
538 63.609200 60.167500 22.681100 25.161420 29.515420 6.1741660
539 73.676800 72.609400 58.084800 41.175730 46.304560 31.228700
540 79.674900 82.554000 68.710600 53.459470 61.371430 45.961670
541 82.448500 82.340700 75.792100 57.113680 62.710110 56.773650
542 0.0000000 66.882900 100.00000 33.130020 35.052220 106.37680
543 24.638100 77.171100 100.00000 40.572160 47.383050 107.36730
544 30.719200 56.493200 71.814300 20.615790 23.531470 46.922350
545 36.515800 58.719100 78.500700 24.686800 26.631000 57.959570
546 48.428600 62.807900 76.348200 29.036650 31.667300 54.723950
547 64.957600 63.977600 79.712400 37.379610 36.614740 60.824170
548 65.064800 78.367000 91.254800 49.602770 53.951080 85.281300
549 69.939200 82.530300 100.00000 58.900070 61.969060 108.35570
550 39.812100 33.335400 53.031200 11.988250 10.179260 22.755470
551 47.739400 39.563500 52.875900 15.515020 14.056310 22.955730
552 56.799200 51.099700 47.838200 21.223030 21.890010 19.509290
553 61.370900 54.868400 66.660200 28.105340 26.726080 39.718330
554 75.778700 58.136500 72.094600 38.530840 33.799210 47.949800
555 0.0000000 0.0000000 0.0000000 0.0915495 0.0928022 0.1677890
556 11.868500 14.051800 0.0000000 0.8721450 1.1812530 0.2675910
557 49.162600 23.553100 0.0000000 8.9041750 6.8156530 0.4677700
558 51.382400 70.051000 0.0000000 24.068960 35.886030 3.5544560
559 72.700100 72.370300 20.713800 36.068530 44.268330 6.8198850
560 38.402900 31.034500 8.2217000 7.2612580 7.7759370 1.0424440
561 45.718800 32.250300 23.158900 10.088000 9.4829830 4.5255190
562 67.002700 35.334600 52.706100 22.457340 16.255310 22.634700
563 78.887200 41.272300 64.594000 33.147240 23.341790 36.254690
564 45.400800 0.0000000 27.057400 7.0916630 3.5286310 5.3832880
565 67.033000 0.0000000 30.600200 15.985470 8.0856790 7.0296470
566 73.711600 20.617500 29.897800 20.980990 12.363470 6.9934200
567 78.855000 48.157800 48.363800 32.039490 26.134690 19.844300
568 10.967100 9.2992000 0.0000000 0.4830950 0.5187810 0.2009780
569 14.527600 8.9096000 42.149300 3.0654300 1.3446600 13.454340
570 23.479100 8.7644000 48.780900 4.9856080 2.1527720 18.362530
571 41.307500 7.6430000 56.433600 9.7693450 4.3082710 25.451490
572 54.388000 24.618100 67.172400 17.742700 10.303630 38.765870
573 60.760000 37.954400 67.168900 23.030380 16.795050 39.443880
574 0.0000000 10.333300 34.804700 1.8386940 1.0163240 8.7549470
575 10.869500 14.432300 42.461400 3.1913060 1.9164830 13.651630
576 18.318900 30.830900 80.949100 14.332440 9.2904480 60.424670
577 0.0000000 55.086900 72.941300 17.497750 21.105260 47.909430
578 0.0000000 87.260700 71.350000 34.749640 56.415010 49.391380
579 0.0000000 100.00000 78.035400 46.748830 77.564530 62.222880
580 21.554700 100.00000 84.641100 50.492920 79.180090 75.164800
581 21.891400 100.00000 92.612900 53.404300 79.942590 91.642030
582 100.00000 100.00000 92.710300 89.958510 98.789550 92.642120
583 0.0000000 100.00000 38.086200 38.956930 75.166950 18.730690
584 22.077400 100.00000 62.858000 44.428520 77.319380 40.790830
585 23.672100 83.986200 0.0000000 26.098670 49.708710 5.4287300
586 41.002100 89.662600 0.0000000 33.803730 59.898350 6.3273330
587 59.431900 92.303300 31.603500 43.571300 67.861970 14.186210
588 65.796000 76.099400 0.0000000 33.742620 46.074090 4.2951630
589 83.039800 80.575500 0.0000000 46.881330 57.062810 4.8858090
590 100.00000 88.274100 0.0000000 65.285860 74.684390 6.0633970
591 100.00000 88.798300 32.973800 67.521880 76.412300 14.636420
592 100.00000 90.216000 57.862800 71.981840 79.598950 34.148720
593 84.092300 61.583200 0.0000000 37.116500 36.453280 2.6239270
594 100.00000 65.060500 18.603300 51.810020 46.759440 5.4412200
595 36.735000 19.655700 0.0000000 5.1116880 4.1481420 0.3737120
596 45.463600 20.307000 9.9183000 7.4922300 5.5016550 0.8672980
597 54.652800 27.482700 10.295200 11.597220 9.1162250 1.1862720
598 74.018200 40.770600 28.162800 24.844480 19.867770 6.9686820
599 75.813900 70.942900 82.688500 48.017950 47.283180 66.930050
600 88.184200 76.191800 100.00000 66.762890 60.123150 107.98520
601 69.495800 38.183500 79.951300 31.045430 20.296090 59.449480
602 100.00000 48.639900 88.839900 58.577800 38.069990 77.761080
603 100.00000 54.124100 100.00000 65.404420 43.410350 105.84430
604 17.850800 33.814100 18.627600 4.6136120 7.1626440 3.1388390
605 21.285600 38.090100 39.782800 7.6493250 9.8209150 12.901480
606 27.821000 41.628700 46.027400 10.315050 12.282890 17.421290
607 37.073700 47.222400 54.062800 14.935720 16.682210 24.375060
608 18.781300 18.928400 60.819100 7.2828140 4.0906540 30.277100
609 23.258000 17.325000 100.00000 20.783460 7.9920010 103.79470
610 44.004200 31.750000 100.00000 27.390220 14.697710 104.25830
611 24.774300 22.725300 7.7172000 3.2459550 3.7538240 0.7172920
612 34.093600 22.899500 8.3321000 4.9699640 4.6758790 0.7821870
613 55.306500 41.719100 36.281800 16.549430 15.778370 11.132740
614 71.123200 58.778800 55.620900 32.368080 31.756270 27.081170
615 70.823400 60.582100 63.327300 34.592690 33.705500 36.092440
616 80.639800 69.611800 78.797700 49.129120 47.048270 60.045490
617 8.8638000 20.746200 12.768100 1.5124940 2.4600890 1.2883420
618 21.936900 27.395300 17.547400 3.8633910 5.0569690 2.5864260
619 25.029000 33.122900 17.492100 5.3386490 7.3317780 2.8008690
620 26.524200 16.769000 0.0000000 2.7442440 2.4249700 0.3034220
621 53.048900 20.857700 8.7961000 9.9630160 6.8837630 0.7542630
622 79.327600 21.476100 24.511200 24.195550 14.263800 4.7430310
623 100.00000 36.386500 44.630500 44.491920 28.217610 16.703670
624 100.00000 50.946700 66.749800 52.476480 37.336660 40.408500
625 15.486400 0.0000000 9.6944000 0.7121300 0.3995110 0.5852160
626 19.686600 6.6811000 9.5152000 1.2448380 0.7620190 0.5882610
627 27.240100 13.324500 18.791300 3.0482340 2.1622730 2.5942870
628 34.260300 14.793000 25.162000 4.8369460 3.1328540 4.7240360
629 62.276800 17.134100 41.139700 15.585410 8.7390570 13.161320
630 70.984300 19.972700 52.831700 22.104330 12.258540 22.381750
631 73.528200 20.792100 100.00000 38.202720 17.638540 103.84900
632 54.533500 0.0000000 87.890100 22.121590 8.6983250 73.574960
633 58.518900 19.855200 100.00000 30.538450 13.445950 104.29950
634 75.530600 36.986300 100.00000 42.279410 24.072580 104.29760
635 85.897200 51.752900 100.00000 53.186500 35.860510 104.80440
636 56.455800 0.0000000 56.920500 14.480730 6.5735230 26.046920
637 68.439100 9.4940000 78.891300 25.853110 11.556660 56.685790
638 100.00000 14.527600 90.889000 52.702580 25.056550 80.594020
639 59.145400 33.114600 36.088800 16.095140 12.670860 10.609150
640 69.701900 40.196600 43.494900 23.756320 18.782890 15.628660
641 81.395400 40.322400 45.337700 31.136700 22.636270 17.059270
642 54.165100 12.212000 17.241300 9.7974670 5.5283420 2.1424870
643 56.741200 35.045100 44.909100 16.563660 13.309770 16.409580
644 66.022900 42.199900 49.585200 23.162370 19.084520 20.378470
645 74.485400 43.206900 55.707600 29.102550 22.312240 26.043700
646 0.0000000 85.315400 19.894900 26.017850 51.255780 8.2305900
647 39.430200 93.369500 28.849900 37.496690 66.089440 12.967630
648 44.557000 100.00000 49.691200 46.941160 79.106390 27.372290
649 86.462200 100.00000 84.561600 76.638230 92.755770 75.661970
650 62.058800 0.0000000 15.350700 12.537490 6.5015470 1.5643490
651 81.333500 18.855400 42.546100 26.933600 14.886870 14.315430
652 85.552900 19.481000 89.278000 41.103790 19.952790 76.898250
653 100.00000 31.764500 88.701900 54.291330 29.705070 76.554730
654 79.641300 0.0000000 43.577000 24.770620 12.351330 14.833530
655 100.00000 22.245900 69.647300 46.871200 24.773960 43.053810
656 100.00000 38.907400 79.815000 52.709510 31.826540 59.720210
657 22.229700 23.947900 37.370400 4.8743270 4.5004370 10.897030
658 24.948600 25.922800 55.595300 8.0651030 6.0919660 24.909350
659 31.679300 31.361600 64.851900 12.126230 9.1730440 35.928870
660 18.208300 0.0000000 48.936200 4.1594420 1.5141180 18.337350
661 39.027600 0.0000000 100.00000 22.971070 7.8883210 103.90510
662 46.414500 53.946300 100.00000 34.171590 27.133820 105.63460
663 73.079700 76.248900 100.00000 56.704820 54.973050 107.39230
664 0.0000000 52.663200 18.855100 8.7473030 16.669270 4.2079330
665 29.615600 54.801700 21.353000 12.244850 19.608100 5.2131000
666 54.427600 54.883700 24.782300 19.173110 23.241650 6.4537810
667 69.963200 56.006600 26.023300 26.962760 27.893640 7.0848010
668 79.420200 57.068000 30.490400 33.413830 31.823290 9.1722300
669 85.248900 56.605200 38.984500 38.075670 33.811210 13.937290
670 86.096000 58.580900 55.324900 41.882680 36.535060 27.017600
671 100.00000 61.619700 66.727900 56.633620 45.690470 41.177620
672 100.00000 79.461600 73.819000 68.352440 65.780860 53.872750
673 100.00000 91.034900 82.421800 78.851980 82.810610 69.856200
674 100.00000 49.908700 26.170400 46.078120 34.663360 6.8529210
675 100.00000 52.668100 37.096800 48.023180 36.828050 12.707280
676 100.00000 82.968400 69.400900 69.362230 69.969030 47.539000
677 22.863300 69.129100 0.0000000 16.896080 31.448920 3.4605840
678 27.896600 74.417500 29.914200 22.084440 38.675830 10.640580
679 28.749000 73.484800 57.228200 25.179590 38.829630 30.013580
680 54.363200 75.753800 60.136800 34.021330 45.243420 33.754640
681 62.956200 84.502500 61.517000 43.699690 58.611710 36.740410
682 67.348200 88.576200 77.981100 53.149310 67.068960 61.202280
683 77.405000 92.574800 80.307600 62.732170 76.459990 65.995390
684 83.380800 100.00000 93.312600 77.524820 92.407090 93.817160
685 0.0000000 70.370600 45.830600 19.118540 33.440260 19.153650
686 0.0000000 88.164000 51.824400 31.206930 56.408350 26.196200
687 41.975600 91.920000 53.524900 39.988260 65.157180 29.225800
688 0.0000000 51.198500 40.982900 10.044490 16.320140 14.051370
689 41.019900 66.810400 53.851400 23.689090 32.759980 25.962510
690 44.847800 70.033500 62.389900 28.096720 37.275650 35.607870
691 75.954100 61.784900 15.821800 32.235030 34.298890 4.2229540
692 90.487900 62.002900 25.875200 42.981240 39.929810 7.6211440
693 100.00000 68.245900 41.030000 55.330860 50.631400 16.680250
694 60.945600 46.168600 0.0000000 18.183720 18.449030 1.4551990
695 86.074500 51.566700 0.0000000 34.550880 29.341570 1.7776130
696 100.00000 60.906700 28.721100 50.458470 43.082230 8.9211650
697 100.00000 61.274300 55.207200 53.914660 44.501130 27.531800
698 0.0000000 0.0000000 0.0000000 0.0915712 0.0928626 0.1677690
699 0.0000000 9.6361000 25.687100 1.0511820 0.6762890 4.6389990
700 9.7340000 20.521400 40.610700 3.5601920 3.0766280 12.596110
701 0.0000000 85.886400 79.433000 36.117760 55.204250 62.300740
702 0.0000000 87.371500 88.788700 40.502170 58.483470 80.559760
703 20.208600 0.0000000 63.458700 7.0580050 2.4390610 33.381570
704 35.323300 0.0000000 66.274500 10.276520 3.9583320 37.307090
705 48.419100 17.194500 69.025500 15.240170 7.5133320 41.159920
706 48.754500 36.048300 72.140800 19.287210 13.952400 46.467520
707 49.560100 42.583000 85.292400 25.133610 18.504140 69.582520
708 64.117400 87.230100 100.00000 59.304060 67.073220 109.49870
709 63.205100 100.00000 100.00000 69.053620 87.367640 111.57580
710 17.513100 9.1591000 19.280600 1.4643270 0.9302420 2.6429080
711 20.351400 15.014800 19.030100 2.1519470 1.8403760 2.6699990
712 32.341000 21.572100 21.904600 5.0160170 4.3676910 3.7420580
713 42.025000 57.398000 48.100500 18.760550 24.061630 20.162330
714 54.001000 68.777800 60.987500 30.095770 37.385090 33.869880
715 84.682900 24.383100 36.372400 29.277760 17.300470 10.569050
716 91.332500 23.736000 59.619500 37.524370 20.732580 29.695820
717 100.00000 41.685300 72.136500 51.174700 32.463670 47.513910
718 0.0000000 13.539600 18.520900 0.9176810 1.0878480 2.4370710
719 0.0000000 26.095400 23.160000 2.6015590 4.0318830 4.1382790
720 0.0000000 41.990800 30.447800 6.3785840 10.719500 7.7493310
721 37.386300 65.899700 31.043500 19.493070 30.461000 10.208950
722 49.592000 67.202800 30.430900 23.444860 33.493900 10.038020
723 59.689400 68.041500 30.084800 27.791830 36.408970 10.046260
724 71.258200 71.664700 32.099400 35.711620 43.411790 11.497120
725 70.634900 88.646500 41.019700 47.368140 65.598330 19.025620
726 73.171100 100.00000 49.788600 59.317130 85.483260 27.643150
727 22.109500 63.393400 10.480000 14.150170 25.963420 3.4757120
728 19.960400 55.163100 0.0000000 10.153070 18.563700 2.0946290
729 37.242800 54.915800 0.0000000 13.162700 19.948410 2.0650160
730 60.330900 62.482200 0.0000000 23.793980 30.177490 2.7360720
731 72.161300 79.349700 80.416500 50.176730 55.873270 63.908800
732 73.323600 100.00000 89.885300 69.815490 88.714390 85.895260
733 0.0000000 36.250400 39.799200 5.9499130 8.2957260 12.429670
734 0.0000000 38.188600 48.152700 7.3950200 9.5465310 18.250010
735 0.0000000 35.951000 62.021200 9.3661500 9.2970780 31.781110
736 0.0000000 36.096800 71.042900 11.575280 10.061330 44.191790
737 44.885400 48.332200 81.246800 23.977190 20.547040 62.094400
738 67.158800 49.595700 81.913300 33.511870 26.013580 63.660550
739 82.833800 64.335700 83.129000 49.246270 42.805220 67.280070
740 36.428200 0.0000000 27.514900 4.8859630 2.3752730 5.6030010
741 42.196000 17.021200 37.067400 8.0253830 4.8837870 10.642230
742 52.314600 22.040900 47.920300 13.000370 8.0773180 18.108900
743 100.00000 51.122700 56.172100 50.305000 36.736670 27.640370
744 69.247800 0.0000000 12.225700 16.108200 8.3807890 0.9682560
745 84.678600 0.0000000 13.063800 25.878330 13.449280 1.1283000
746 85.523300 0.0000000 29.009200 27.475400 14.075010 6.3906110
747 84.928000 0.0000000 37.481100 27.736540 14.039900 10.870810
748 100.00000 0.0000000 50.626600 41.577920 20.880910 20.562730
749 100.00000 20.689400 50.720000 42.726810 23.139240 21.046730
750 73.015500 0.0000000 52.023800 21.853710 10.586340 21.359960
751 76.718100 23.591600 72.615100 30.335970 16.294560 46.904780
752 89.602300 100.00000 74.929000 75.666300 92.765930 58.469260
753 100.00000 100.00000 74.809600 84.005130 97.094360 58.973730
754 12.836400 19.787100 0.0000000 1.4414950 2.2508350 0.3797020
755 12.730300 26.274900 26.345400 3.2328370 4.3704070 5.4306570
756 20.445000 26.064800 30.856900 4.3424960 4.8322730 7.4448620
757 42.073500 40.390600 46.604400 13.212890 13.335980 17.755830
758 57.107500 55.699800 47.459800 22.976760 25.272880 19.540660
759 100.00000 73.014200 58.144400 60.629030 56.774640 31.898510
760 71.798100 37.243700 0.0000000 21.528590 16.973660 0.9747640
761 80.963400 43.161700 18.113200 29.053880 23.020820 3.4906980
762 45.532100 9.5599000 50.689000 10.041910 4.7521770 20.118330
763 61.598300 57.592200 100.00000 41.240200 32.898920 105.69940
764 75.126600 58.187800 100.00000 48.736820 37.194380 105.69950
765 10.345400 0.0000000 12.537400 0.4538700 0.2501910 0.9863210
766 23.728500 0.0000000 12.674300 1.7651130 0.9283840 1.0427280
767 45.471200 79.862400 23.098000 28.956100 47.206620 8.5710970
768 46.967400 92.595300 39.517200 40.077490 66.335430 18.703060
769 77.186200 100.00000 63.321400 64.258330 87.470650 41.864610
770 77.850200 100.00000 74.175300 67.407350 88.515570 57.346700
771 0.0000000 74.089600 73.825100 26.923960 39.509050 51.445370
772 0.0000000 76.247600 83.239600 31.085970 42.984150 67.863410
773 0.0000000 80.949500 100.00000 41.204270 51.266380 108.02020
774 34.269200 92.960300 100.00000 53.416740 70.439120 109.89160
775 13.904400 57.065300 81.540500 21.399120 23.703470 62.993190
776 33.998300 66.331800 82.130700 28.900740 33.825530 65.228160
777 30.201900 0.0000000 10.554000 2.7466840 1.4495290 0.7491430
778 33.093800 27.452000 14.619100 5.6550530 6.0066160 1.8543130
779 22.370600 25.387600 0.0000000 3.1869030 4.2263570 0.5340220
780 28.813800 30.511400 46.130500 8.0562540 7.5331990 16.941090
781 29.926800 30.903000 53.196800 9.3559220 8.0975350 22.818470
782 29.956600 41.239500 55.190200 12.015920 12.765220 25.193480
783 0.0000000 27.270800 34.393900 3.6613520 4.6924240 9.0240730
784 0.0000000 29.674100 42.955400 4.9908470 5.8185360 14.196900
785 17.771000 41.832500 63.859100 12.088010 12.686730 34.992810
786 32.640500 32.375400 42.142900 8.6407110 8.4650070 14.244720
787 52.147900 32.206000 47.622800 14.545590 11.313720 18.261170
788 34.119800 19.151100 38.231100 6.4237780 4.3986320 11.300890
789 45.038000 30.003300 38.604700 10.821960 9.0023130 11.936570
790 44.081500 84.985500 42.169900 33.828240 54.634830 19.073000
791 18.073800 70.100500 35.994000 18.752180 33.228660 13.206430
792 39.908500 76.530700 42.046300 27.174960 42.925040 17.848630
793 86.584600 89.757300 51.249200 59.869720 73.062150 27.103470
794 89.104300 91.808500 69.958300 67.132530 78.397310 49.494210
795 88.929300 93.733800 80.309200 71.569400 82.371760 66.450920
796 33.262300 26.678300 22.839500 5.9602950 5.9226830 4.1804200
797 37.684300 34.601900 23.399200 8.4820900 9.3548230 4.6992070
798 37.459500 57.194500 33.343900 15.822150 22.716490 10.507360
799 31.168700 90.813100 39.062400 34.589530 61.409570 18.026720
800 14.896000 92.229300 43.011800 33.725970 62.512960 20.676260
801 86.524100 72.682500 0.0000000 44.463680 48.720250 3.8492070
802 92.266400 77.770600 14.449000 52.220740 57.435040 5.8232100
803 77.801600 62.518400 42.839800 36.116270 36.445880 16.930540
804 89.237300 65.165700 48.546400 46.070440 43.372750 21.558750
805 52.644600 43.549700 44.125000 16.899050 16.483490 16.214830
806 69.211500 43.917300 65.452600 28.343430 21.789290 37.443920
807 72.574200 44.737300 76.313500 33.258340 24.143820 53.533910
808 84.654600 53.043500 78.792000 44.412080 33.558410 58.542940
809 48.937100 47.835000 35.555000 15.856930 17.876000 11.063010
810 49.953500 50.329400 57.774800 20.107690 20.612290 28.566760
811 52.167900 57.914300 51.541600 22.461710 26.196570 22.945680
812 55.460100 74.248600 51.663600 31.987510 43.241560 24.916470
813 54.750900 88.493400 51.474100 41.135750 61.926410 26.868190
814 9.2622000 27.607400 14.513200 2.5637700 4.4429830 1.8223990
815 37.797300 36.712300 15.810500 8.5076310 10.109480 2.4721750
816 34.136400 32.432200 0.0000000 6.4191150 7.6348530 0.7825810
817 45.731600 43.514600 24.798800 12.802650 14.717780 5.7325770
818 46.478700 48.804700 42.751000 16.223620 18.374120 15.525440
819 47.335800 55.297600 61.504200 21.779470 23.948480 33.134830
820 16.959600 54.963900 45.419500 12.755550 19.611260 17.754410
821 15.449900 72.304100 62.126100 23.642580 36.849240 35.292700
822 31.334400 92.329700 85.316600 46.020920 67.060530 75.030770
823 44.900200 100.00000 92.051400 58.291670 82.473860 90.724780
824 0.0000000 35.992800 32.184600 5.1204120 7.9418060 8.2317460
825 16.909400 52.557700 64.864500 15.312320 18.938550 36.875110
826 43.149400 53.465000 71.030900 22.289330 22.752580 45.884340
827 52.164500 59.565800 86.517300 32.168780 30.518050 72.958170
828 60.046600 66.081500 100.00000 44.481930 40.338300 106.82760
829 92.763100 12.227300 61.962900 37.979920 19.038340 32.360220
830 91.537400 16.502800 71.026400 39.419260 19.806820 44.530520
831 38.537400 0.0000000 47.108600 7.4461690 3.2612640 17.208390
832 52.733000 17.801900 57.484800 14.185610 7.6225220 26.799690
833 54.519600 26.745300 57.804500 16.162800 10.388870 27.451760
834 65.085400 60.706500 57.110800 30.196350 31.784380 28.812960
835 71.475600 66.537400 71.962000 39.972720 40.256430 48.671870
836 14.159900 10.277500 93.402500 16.032690 5.4050130 85.842970
837 13.606600 9.7114000 83.270500 12.140220 4.1447230 64.459060
838 29.826200 22.442600 89.236800 17.645740 8.3642510 76.797320
839 41.901600 0.0000000 78.056600 15.003860 5.7251580 55.148870
840 58.649600 17.515600 76.611000 21.142740 10.210070 52.990580
841 68.747600 23.177200 85.346500 29.525130 14.970730 68.966090
842 36.237300 8.3066000 22.932500 4.7214780 2.5476590 3.8187200
843 46.028100 8.7985000 22.878100 7.2494290 3.8829050 3.8423980
844 65.576600 7.5873000 26.035900 15.095190 7.8465000 5.0562270
845 66.208900 16.398800 67.885900 22.270810 11.056040 39.911820
846 67.180300 31.672100 70.637500 25.725590 16.035840 44.304000
847 78.799300 10.027300 70.132500 29.630940 14.104910 42.964240
848 70.532700 0.0000000 72.269100 24.796440 11.155700 46.106310
849 91.284700 5.5702000 76.177500 39.990130 18.862490 52.340620
850 90.187100 6.5047000 91.834700 44.610590 20.086090 82.621160
851 12.594200 9.6169000 14.710900 0.8287620 0.6804430 1.4565640
852 18.269200 9.4946000 33.523500 2.5780240 1.3159630 8.3555230
853 68.029300 8.8712000 91.449200 30.019280 12.717570 81.502490
854 73.723200 50.569900 90.844500 40.759690 29.627210 81.663430
855 17.045700 23.594000 71.643200 10.294840 5.9773240 45.061260
856 20.635700 36.993200 78.078700 15.070120 11.758170 55.887340
857 33.232800 44.221400 88.295600 22.465460 17.517460 75.638810
858 48.193100 28.426200 16.764300 9.7343670 8.3534210 2.3733860
859 60.916700 41.515600 18.370700 17.474000 16.430170 3.5088810
860 73.556200 52.648800 18.577200 27.351060 26.328920 4.2531030
861 90.465900 76.848700 29.000600 51.271690 55.915680 10.707560
862 100.00000 77.180300 47.659300 61.281390 61.156750 22.668320
863 17.242500 15.805100 7.2631000 1.4724310 1.6539450 0.4938780
864 21.232100 16.078800 10.276700 2.0041950 1.9562240 0.8454400
865 25.529200 20.150000 9.7868000 3.0719760 3.1887000 0.8387750
866 36.955700 38.829000 54.889200 12.823730 12.340460 24.710880
867 46.047700 52.625600 54.439800 19.102810 21.389810 25.268700
868 52.669500 53.077000 67.095400 24.094020 23.674880 40.381250
869 15.718700 0.0000000 36.304600 2.3812130 0.9118140 9.8540320
870 22.209000 10.603200 41.875900 4.0374830 2.0093100 13.416980
871 10.244600 8.2543000 32.709500 1.8003110 0.8740860 7.8685840
872 12.366500 15.625300 36.396300 2.7308920 1.9499090 10.017510
873 23.267100 81.186100 90.009500 38.320840 50.782240 82.733410
874 43.970700 84.368100 100.00000 49.616470 59.041830 108.71450
875 63.292300 93.670700 100.00000 63.712420 76.579330 110.37890
876 25.131800 8.3598000 11.267800 2.1109010 1.3083070 0.8617080
877 33.597000 8.8814000 11.839300 3.6585590 2.1288540 0.9806440
878 41.404600 8.9119000 11.646200 5.4607500 3.0621140 0.9503000
879 92.067600 11.225000 17.282500 31.944220 16.944550 2.2076560
880 91.762600 8.3189000 23.344100 31.943420 16.677110 4.0590620
881 100.00000 20.811100 22.658700 39.683910 22.218760 4.1001920
882 100.00000 19.733000 59.756100 44.242880 23.440290 30.274280
883 8.4237000 12.039100 7.3269000 0.5701710 0.7961960 0.4420200
884 12.961300 14.302200 8.7206000 1.0118140 1.2653530 0.6218050
885 16.357600 25.321000 18.195300 2.8816210 4.0610720 2.6817010
886 23.338400 30.321900 25.762400 5.0589850 6.3274580 5.4271350
887 42.797200 56.366100 25.233800 16.194030 22.568820 6.8267460
888 53.297800 60.056200 32.935600 21.560410 27.472500 10.608910
889 63.863600 65.191500 53.398900 31.134300 35.524690 25.457440
890 63.477500 72.648300 67.773900 37.846030 44.230100 43.116710
891 16.795500 11.923200 11.686000 1.2249930 1.1151550 1.0025060
892 23.897000 15.235800 15.881900 2.4941860 2.0826270 1.7807910
893 29.195200 24.916700 17.468700 4.6273290 4.8837800 2.5094180
894 25.043600 19.511500 35.480700 4.5333690 3.5304080 9.6726950
895 30.403000 24.151300 35.451900 6.0566090 5.2086600 9.8098860
896 60.056600 32.971000 55.977600 19.254610 13.719190 25.776780
897 68.163100 44.452100 59.037600 26.467890 21.355050 29.697910
898 59.799700 16.692800 15.753400 12.430490 7.4247760 1.7872920
899 70.506700 16.650700 16.898400 17.810220 10.198530 2.0737350
900 80.775000 28.504600 42.383000 27.899110 17.389240 14.493070
901 80.042000 56.471200 88.009200 45.679580 35.495150 76.185110
902 82.996600 87.239200 92.157800 66.659850 71.609090 89.046980
903 19.054700 47.730400 50.012000 11.201090 15.094630 20.693360
904 27.129200 57.012000 62.914400 18.037890 22.959860 34.872870
905 34.084400 65.935500 67.296500 24.414930 32.021960 41.517600
906 44.336200 67.717600 79.039100 31.192880 36.247800 60.070210
907 59.310500 67.883300 81.636900 37.418570 39.489990 64.751640
908 13.473800 31.729700 35.137300 5.0175400 6.5502100 9.8492790
909 32.628500 38.762100 47.573100 10.729150 11.446790 18.461180
910 40.839100 55.285700 66.275600 21.027830 23.316360 39.200930
911 47.104400 74.795700 82.584900 37.044150 44.868410 67.157630
912 51.136700 74.478900 90.081900 40.855790 46.064250 82.170680
913 0.0000000 60.879800 71.368800 19.421590 25.684960 46.042270
914 18.278700 67.368400 70.671700 23.418300 32.391830 46.325850
915 59.587600 67.501500 90.242400 40.344930 40.060290 81.536160
916 12.374600 6.9379000 17.680000 0.8315560 0.4987930 2.1439920
917 16.937100 6.8020000 23.382400 1.5104990 0.7786120 3.9121330
918 67.441800 20.675700 22.788100 16.987990 10.410120 4.0603900
919 80.438600 51.098000 21.753700 31.221930 27.560930 5.1286740
920 91.595700 51.208600 21.102500 39.254560 31.765860 4.9356640
921 100.00000 60.340000 89.595800 63.219410 46.944250 80.255630
922 15.610300 3.3751000 13.888200 0.8698550 0.4632370 1.3301290
923 25.247200 6.0665000 22.624900 2.5379140 1.2963760 3.6846010
924 31.291600 23.602500 60.368700 9.7770470 6.2746830 30.049500
925 32.484500 45.225700 65.870400 15.772910 15.849160 37.871680
926 11.506300 39.141600 45.354700 7.5965140 10.039430 16.625360
927 8.7767000 61.081000 60.830100 17.203210 25.154020 32.413990
928 13.592600 80.916600 65.914800 29.547910 47.453010 41.361050
929 29.721800 86.005800 65.833800 35.318860 55.667830 42.346960
930 53.147800 64.801100 9.4498000 22.219950 31.162280 3.4144690
931 64.245100 70.898000 11.643900 30.284350 40.071440 4.4534280
932 67.417400 78.243600 25.532800 37.002040 49.920300 9.3257810
933 10.148200 42.690000 10.770800 5.6925020 10.752800 1.8955770
934 16.496300 48.890800 9.9502000 7.8107940 14.390100 2.1461830
935 51.036800 60.883900 18.839800 20.044070 27.391980 5.0051860
936 70.249100 88.655800 71.585100 53.014650 67.462220 51.022450
937 79.444800 89.524000 71.418600 59.048100 71.592140 50.974940
938 10.709200 16.835600 4.3908000 1.0051630 1.5491830 0.3530290
939 12.412100 18.504200 22.836400 1.9463650 2.2348430 3.8932890
940 27.162600 20.824400 23.854800 4.0539810 3.7069600 4.3687700
941 36.004600 24.452400 30.194400 6.7565560 5.7226670 7.1141190
942 50.607800 29.363400 34.835200 11.975000 9.5135370 9.7628030
943 74.916000 31.077700 35.591000 23.929400 16.174530 10.361210
944 50.259300 0.0000000 11.695200 7.7577160 4.0450140 0.9431370
945 63.500800 12.701600 22.113400 14.154120 7.7903400 3.6647430
946 71.730000 23.398500 47.348500 22.104140 13.091860 17.804370
947 85.529400 24.378100 68.756300 35.375370 19.295740 41.429420
948 30.111100 0.0000000 30.959700 3.8625090 1.7875750 7.0922240
949 30.636700 0.0000000 53.605200 6.6923020 2.6701160 22.519670
950 35.755400 11.493100 63.624100 10.073180 4.4230500 33.682400
951 33.895400 79.721300 67.258600 32.241860 47.678000 43.225060
952 57.484700 80.162400 72.002900 40.876440 52.308100 50.437940
953 66.383000 84.982100 12.318400 40.250640 58.362340 6.4243810
954 89.372100 91.732200 17.302000 60.052250 76.080650 8.6826800
955 20.573300 31.662200 9.5544000 4.1335740 6.3281610 1.1908710
956 21.470800 32.863500 23.600900 5.1142490 7.0953800 4.6803810
957 20.962600 34.426400 31.490100 5.9851890 7.9155980 8.1489770
958 51.178700 46.826500 51.589200 18.352050 18.389020 22.256480
959 55.458600 47.313400 56.762600 20.969910 19.752310 27.339950
960 61.206800 57.541500 85.589900 34.683360 30.652920 70.973110
961 67.988600 66.365000 89.839200 43.822110 41.067120 80.931270
962 78.161100 70.382500 91.183700 52.381540 48.526020 84.273550
963 16.824800 61.506700 56.335400 17.094160 25.557580 27.665490
964 25.085300 66.458700 64.417000 22.307230 31.451220 37.767110
965 63.899200 78.940500 67.859300 41.918300 51.919850 44.213150
966 70.759200 48.332400 25.949800 24.824680 22.927340 6.5148040
967 79.943200 47.946600 29.034900 30.491910 25.657530 7.8240100
968 79.056600 51.675800 70.407200 37.818850 29.951060 45.077410
969 54.695400 5.0984000 32.161300 10.667030 5.3446590 7.8169090
970 53.937500 23.504400 32.426100 12.048280 8.2316370 8.2677920
971 52.849000 9.7860000 47.731400 11.927950 5.8433790 17.786370
972 60.345400 11.198500 57.648700 16.702510 8.0893730 26.980350
973 76.755300 15.064900 60.261500 26.327340 13.371860 30.124660
974 75.952100 28.785500 65.705400 28.889960 17.145650 37.323920
975 81.610200 41.482300 72.588700 37.049900 25.020110 47.577600
976 90.873800 57.496300 77.383800 50.308910 39.257690 56.567490
977 69.322800 60.909400 45.406900 30.688810 32.532410 18.563050
978 68.819100 70.580700 49.148000 35.898040 42.239550 22.443160
979 79.699400 77.410600 46.962000 45.942300 53.420610 21.631740
980 84.299500 78.805200 86.079500 59.487580 59.934440 74.737380
981 39.159300 40.196600 69.575200 16.952640 14.310080 42.987720
982 60.540800 39.996700 84.026400 28.315900 19.265760 66.894570
983 78.302200 44.363900 89.770800 41.299680 27.276120 79.029830
984 90.583100 55.409200 93.511200 55.000820 39.352090 88.018550
985 44.027800 10.338800 39.441900 8.2367340 4.2215070 11.958560
986 51.918100 15.665300 39.853100 11.074580 6.1962330 12.297570
987 75.881900 38.735000 48.592100 27.695620 20.190170 19.463230
988 77.037100 47.976000 53.691300 31.652020 25.694590 24.383870
989 68.722900 62.039100 53.314300 32.085830 33.796950 25.093990
990 78.516600 69.292700 61.986000 43.200060 44.581950 35.443680
991 79.000000 69.898800 72.036900 46.323170 46.196650 49.345760
992 91.419800 72.583700 74.180200 57.210030 53.941310 52.977220
993 91.408800 31.668000 25.075400 34.537380 21.983240 5.3385860
994 91.838000 40.875400 32.367000 37.433490 26.379200 9.1233850
995 92.204900 53.134700 42.139500 42.412520 34.057430 15.764460
996 50.824400 31.614300 8.9711000 10.896060 9.8073300 1.1079760
997 51.097400 47.340700 10.372300 14.785110 17.329320 2.1410820
998 62.578200 53.629600 12.927500 21.573830 23.881040 2.9554950
999 60.862600 93.470800 14.208400 44.062160 69.812580 8.2382120
1000 12.708400 70.327900 15.329200 16.876030 32.691350 5.0386720
1001 26.913200 77.960600 16.859000 23.154120 42.523690 6.3323480
1002 36.976300 82.015900 29.660300 28.709060 49.178830 11.573520
1003 100.00000 82.857700 83.254000 73.473180 71.259220 70.363770
1004 100.00000 83.288100 92.539300 77.011150 72.894210 89.195890
1005 9.8543000 12.697300 28.585700 1.6565300 1.2110200 6.0087560
1006 12.114200 45.901500 76.048700 15.824770 15.612470 52.689100
1007 23.141800 52.717100 83.950300 21.721520 21.300540 67.527810
1008 49.044500 65.944900 84.487800 33.485950 35.779030 69.777620
1009 41.346500 21.990100 24.498000 7.3285530 5.6245140 4.6823780
1010 60.622100 23.551800 28.222500 14.412820 9.5408650 6.2912920
1011 63.670100 31.394800 43.845800 18.755080 13.378640 15.497690
1012 41.623600 15.440300 19.130200 6.2883250 4.0378460 2.7344340
1013 46.645300 19.658700 18.623000 8.1209940 5.6717260 2.7060580
1014 89.214800 46.585200 29.978800 36.751630 28.285670 8.2063160
1015 90.394800 77.837000 67.852600 57.923450 59.239090 44.578210
1016 91.751100 77.878300 74.674300 60.713450 60.361100 54.502040
1017 92.173700 100.00000 92.486700 83.784100 95.723460 91.983610
1018 8.9312000 21.317700 23.255800 2.0950180 2.7807370 4.0981920
1019 11.503700 21.128900 47.254600 4.5821760 3.5588300 17.310540
1020 13.109800 28.079300 48.275300 5.8704330 5.7260140 18.327520
1021 27.016000 36.590400 59.935000 11.242440 10.574820 29.976300
1022 61.584100 55.359300 74.490200 30.485810 27.868270 51.327330
1023 71.623800 60.314600 84.674100 40.966960 35.692020 69.713640
1024 14.024900 7.5046000 10.070600 0.7482760 0.5571360 0.7013480
1025 19.717400 10.429400 14.003900 1.5709800 1.1643800 1.4021900
1026 22.164400 29.812700 38.377100 5.9226460 6.4187620 11.667920
1027 48.660800 31.767100 61.165700 15.715650 11.324750 31.449130
1028 50.944200 45.271500 62.007700 19.816190 18.138820 33.145300
1029 61.368600 47.502900 71.782700 27.014180 22.333450 46.655010
1030 77.191200 89.909000 85.101600 62.172330 72.785020 74.659010
1031 82.190200 90.489600 90.572500 67.836490 75.923030 85.797560
1032 33.415700 46.899300 46.923500 12.973750 15.758920 18.451990
1033 48.986600 80.346800 52.844300 33.618460 49.553450 26.742210
1034 74.448100 82.669200 72.904700 51.494020 60.273160 52.055540
1035 36.420400 57.474300 41.362000 16.506730 23.095180 15.258220
1036 62.634800 65.217600 59.252100 31.614370 35.569100 31.613600
1037 67.785900 77.324700 59.120400 40.902050 50.295860 32.979830
1038 73.793700 86.257900 61.814800 50.830930 64.115110 37.471370
1039 69.934800 77.073600 41.743100 39.241680 49.778930 17.870020
1040 88.880700 81.481300 65.084900 58.367110 63.022390 41.077450
1041 24.613400 10.502200 0.0000000 2.0162690 1.4368430 0.2159690
1042 35.643100 12.871600 10.604200 4.3129280 2.7943720 0.8619660
1043 37.892400 18.835800 10.517400 5.4008290 4.1746930 0.9668170
1044 87.363200 35.479500 13.519000 31.552290 21.695270 2.0485670
1045 90.869200 60.425100 10.068700 41.761850 38.337380 3.0758780
1046 0.0000000 10.342400 45.770000 3.0604790 1.3926040 15.572060
1047 12.425900 15.116700 51.256700 4.5408180 2.4365360 20.373190
1048 15.816100 22.195700 54.714300 6.1926460 4.3482560 23.829540
1049 37.941400 32.861700 59.920900 12.717960 10.149360 29.914620
1050 91.207100 41.730500 60.609200 41.234380 27.881430 31.834480
1051 90.306200 74.168600 85.497400 60.935140 56.521040 73.248440
1052 69.795100 72.771800 86.242600 46.887200 47.997100 74.191340
1053 72.401600 80.047700 86.008900 52.633040 57.443350 74.779730
1054 72.826900 85.956400 94.050900 60.130670 66.744440 93.224000
1055 0.0000000 33.703300 52.768900 7.1318940 7.7865470 21.889700
1056 18.308500 39.477100 68.092700 12.631340 11.896980 40.657640
1057 33.842400 46.125200 73.947900 18.437950 17.148740 49.747180
1058 62.170600 20.617600 52.757800 17.646450 10.071610 22.165230
1059 69.957000 36.055400 66.105500 26.951950 18.239500 37.953090
1060 0.0000000 8.9646000 12.194900 0.3667800 0.4170060 0.9491050
1061 15.432900 11.206100 23.548600 1.5932590 1.1123720 4.0534500
1062 19.688400 13.490500 30.094700 2.7215520 1.8589920 6.7690010
1063 73.287000 10.812000 38.671700 20.661870 10.705970 11.642010
1064 76.679600 46.773800 38.233800 29.025460 24.220440 12.722590
1065 76.892900 83.989200 7.0959000 45.433600 59.941050 5.5984090
1066 88.739300 92.893500 0.0000000 60.048320 77.371750 6.8547220
1067 19.694600 24.809000 8.9045000 2.8689320 3.9891950 0.8827910
1068 29.288800 29.383700 8.8655000 5.0452680 6.1828670 1.0349510
1069 53.728500 34.296800 90.977300 26.823690 16.045620 81.127450
1070 19.956700 29.164600 54.334700 7.7013190 6.7386460 23.776780
1071 22.848300 28.393000 69.253600 11.185930 7.6689770 41.791670
1072 21.993700 28.531800 87.910800 16.887820 9.4748700 74.152910
1073 87.652400 30.352800 87.401000 43.575160 23.846160 73.277630
1074 89.263800 36.346800 100.00000 51.634010 28.730230 104.61230
1075 21.195900 0.0000000 24.234400 1.9875810 0.9216160 4.2579860
1076 22.283700 46.503900 27.018800 8.7598470 13.782210 6.7275900
1077 43.726300 54.211900 36.232900 16.520320 21.366040 11.893840
1078 60.278700 71.973400 44.279200 31.698020 41.348270 18.926800
1079 63.259500 92.591400 47.765700 47.478070 70.006290 24.544520
1080 53.694100 74.600600 23.033500 28.410110 42.195070 7.8388700
1081 54.823400 76.840800 40.416800 31.769300 45.684010 16.866920
1082 64.289400 46.935800 37.068400 21.972050 20.649620 11.906310
1083 74.057300 51.809800 37.055600 28.847760 26.459440 12.306790
1084 76.124200 55.211200 54.080400 33.568240 30.299230 25.278050
1085 92.014700 64.825300 72.320300 53.079600 45.816820 49.382940
1086 100.00000 72.497800 76.155600 64.703420 57.630620 56.398530
1087 29.690000 9.3937000 6.4029000 2.8012370 1.7262930 0.3173960
1088 38.725200 32.321500 39.048200 9.6168130 9.0005930 12.253930
1089 49.223600 37.790300 46.526900 14.642070 13.188260 17.637590
1090 0.0000000 48.585800 85.164200 19.184460 17.951940 68.903560
1091 27.961300 64.627000 86.621700 28.474770 32.033210 73.865810
1092 32.790800 75.035700 90.437300 36.510800 44.230250 83.126800
1093 64.129800 39.009900 27.009600 18.964460 16.251660 6.4239630
1094 91.476900 40.237000 45.837800 38.552020 26.465210 17.572570
1095 91.047500 44.903300 53.587200 40.622610 29.089880 24.482560
1096 92.944100 67.636500 57.996100 51.901240 47.959580 30.960860
1097 0.0000000 62.914200 17.148700 12.829980 24.966390 4.6321280
1098 0.0000000 62.682300 48.684000 15.625000 25.814460 20.483780
1099 13.667600 63.327900 52.597900 17.068470 26.930150 24.272000
1100 50.480500 63.000700 65.251300 26.945110 31.300240 38.673670
1101 86.139300 76.208200 91.543600 61.339790 58.055690 85.910200
1102 28.841200 8.0383000 71.203100 10.416450 3.9383840 44.245450
1103 29.851500 21.357100 71.058800 11.715580 6.2921730 44.198050
1104 55.712000 44.974200 76.873400 25.303360 20.088200 54.486040
1105 57.686000 74.666300 83.521900 41.143810 46.797280 69.036220
1106 71.680900 87.822200 89.121400 58.844570 68.451990 82.292030
1107 42.160800 65.687100 63.660300 25.425320 32.523400 36.734610
1108 48.471300 70.266900 73.142300 32.109990 39.070390 50.783900
1109 58.256800 89.163100 73.965300 48.094260 65.319730 54.634250
1110 45.238000 100.00000 64.281900 49.918730 79.985380 42.908160
1111 59.656100 100.00000 85.120400 61.152430 84.637950 76.605170
1112 0.0000000 83.853700 58.869200 29.511390 50.784840 32.652360
1113 14.025600 92.828700 100.00000 50.254950 68.664480 110.02020
1114 15.659400 21.647100 79.204100 12.116090 6.0604180 57.415950
1115 38.064100 22.150900 81.755300 16.718500 8.3773890 61.851910
1116 66.136000 30.637300 16.111500 17.495570 12.986190 2.3297060
1117 74.331800 32.552800 26.214700 23.050430 16.288200 5.7755570
1118 81.830700 31.812400 32.013100 28.110380 18.592690 8.4063970
1119 52.188700 10.594200 9.1661000 8.6985360 4.9099820 0.5644770
1120 69.733400 22.445400 9.5731000 17.911000 11.314540 0.8591600
1121 80.427200 49.332900 11.068400 30.115010 26.155230 2.3127840
1122 80.261700 69.584100 12.460700 38.799940 43.475500 4.4033240
1123 78.742200 77.054000 13.632200 42.238230 51.595260 5.6173050
1124 90.092800 83.875500 13.651800 54.568870 64.662630 6.5919670
1125 100.00000 87.334500 18.495000 65.237730 73.786950 8.3799330
1126 69.671000 13.694300 9.5626000 16.945160 9.4881720 0.6710030
1127 79.411500 12.739300 13.282600 22.754710 12.340750 1.3054500
1128 92.303800 25.996500 17.700500 33.776710 20.240470 2.6559620
1129 13.724000 62.219600 36.470500 14.496680 25.189210 12.628840
1130 12.105400 79.581300 36.119500 23.767760 44.115780 14.445860
1131 23.742000 90.760300 60.424200 36.583220 61.794330 36.253970
1132 29.620400 90.650300 90.155500 46.223820 64.936470 84.687840
1133 49.759500 91.320500 91.487800 52.376460 68.713160 87.625160
1134 55.842900 31.331700 28.620100 13.736020 11.061730 6.7448930
1135 55.597500 37.230100 28.668600 14.881110 13.480160 7.0151000
1136 62.016700 45.306300 28.421300 19.699070 18.947020 7.3767280
1137 83.044300 76.757400 36.712900 46.536270 53.339950 14.744940
1138 91.452700 89.813900 60.677100 65.400910 75.659610 37.059110
1139 92.710100 90.576600 84.316100 73.355270 79.258940 73.382810
1140 62.273100 71.099300 71.746400 37.557170 42.626760 48.793410
1141 61.572800 76.720700 79.433500 42.789860 49.711050 61.936620
1142 78.277300 94.333200 100.00000 72.762360 82.116300 110.65770
1143 10.708600 48.497400 31.796900 8.5748780 14.467630 8.9208990
1144 10.553300 58.133100 41.079900 12.975260 21.675910 14.972940
1145 0.0000000 43.702400 23.403100 6.3190650 11.426100 5.0328670
1146 10.336900 47.757300 70.408400 14.744290 16.143130 44.268190
1147 17.508800 55.592400 74.374800 19.054280 22.056670 50.956240
1148 43.288900 79.915900 80.475400 38.435800 50.332320 63.947050
1149 63.629900 90.869500 91.972200 57.934250 71.112250 88.939610
1150 22.716900 40.859000 30.297900 7.6333870 10.975750 7.8886090
1151 40.700700 45.754300 30.275000 12.467490 15.385470 8.2067020
1152 56.060000 48.192100 29.596800 17.948800 19.248070 8.0584310
1153 60.467800 51.596500 39.544000 21.960490 22.723360 13.793210
1154 20.737100 21.516900 15.980200 2.7727680 3.2383150 1.9462350
1155 35.995200 24.443200 16.866100 5.8963280 5.4559430 2.2617940
1156 54.605700 84.646200 18.923500 35.042900 55.290560 7.9639520
1157 92.640100 89.060100 43.838300 62.897200 74.055060 21.368000
1158 79.838800 16.656900 47.852400 26.334820 14.036640 18.052480
1159 86.690800 28.252500 63.889000 35.593750 20.566150 34.839560
1160 89.771400 35.297800 72.118300 41.349620 25.111750 46.903340
1161 0.0000000 15.524700 9.6696000 0.7211700 1.2290350 0.6895820
1162 9.4080000 16.364000 9.9300000 0.9631500 1.4582080 0.7744940
1163 8.9923000 21.805700 19.211700 1.9273290 2.8287650 2.8488660
1164 13.289500 34.468600 94.246400 19.622290 12.060570 88.423980
1165 18.436500 43.149400 93.810000 22.012100 16.413520 87.881080
1166 12.301600 78.390700 91.634700 36.024490 46.946450 85.941060
1167 38.409200 81.894500 92.073000 42.642970 53.660610 87.552020
1168 3.5363000 25.854200 41.343600 4.1860630 4.4857410 13.090860
1169 14.937700 30.075100 65.044300 9.4888960 7.4704060 35.998520
1170 26.417600 37.224300 69.999500 13.674720 11.563410 43.241990
1171 21.851300 7.5095000 15.498800 1.7343670 1.0355700 1.6120170
1172 28.063000 9.8384000 20.998000 3.0408150 1.7830810 3.1891270
1173 31.042300 9.8495000 28.516200 4.1014500 2.2304990 6.0604660
1174 38.860300 19.681400 32.701100 7.0474230 4.9208180 8.2512110
1175 49.396100 25.366700 39.158400 11.386480 8.1601010 12.097530
1176 58.489400 34.597200 73.021700 22.871620 15.301330 48.015480
1177 43.657900 23.969300 44.228100 10.122200 7.0694150 15.421310
1178 71.857400 49.430500 44.403000 27.620560 24.513320 16.877130
1179 41.770800 23.424000 8.9726000 6.8666020 5.7674530 0.8268780
1180 49.107100 26.111200 20.437300 9.8776420 7.8567120 3.4005800
1181 55.864800 22.600800 19.778600 11.685120 8.0469230 3.0980250
1182 64.829300 25.522300 18.737900 16.138900 10.996360 2.8997950
1183 90.248400 34.760500 52.627800 37.352320 23.776800 22.973000
1184 91.911900 34.718000 63.735000 40.813240 25.140800 35.081710
1185 29.665200 6.5837000 15.580900 2.9085290 1.5864590 1.5995770
1186 30.923200 48.420900 34.416200 11.389880 15.864450 10.435670
1187 45.813900 60.809000 56.371500 22.627180 27.949640 27.904470
1188 61.832700 66.355400 70.994700 34.564330 37.440230 47.082110
1189 64.397600 71.680700 79.304200 41.047930 44.514480 61.145270
1190 6.8919000 22.486000 60.425500 6.7799070 4.4869840 29.882610
1191 13.440200 22.958300 93.382600 17.242250 7.8840480 85.934800
1192 45.022700 64.923500 94.542300 35.771550 35.470460 91.511490
1193 60.108500 74.559000 93.945800 46.081740 48.530320 90.933980
1194 0.0000000 0.0000000 0.0000000 0.0915054 0.0928508 0.1676710
1195 24.097100 9.9340000 8.4828000 1.9527390 1.3303590 0.5384380
1196 29.223400 14.083900 10.536000 3.1307950 2.3499090 0.8791160
1197 34.833600 18.731100 23.752900 5.3024130 4.0024730 4.3004160
1198 50.882600 24.934000 27.362600 10.672380 7.9189880 5.9144720
1199 69.147900 25.901600 76.814400 27.500200 15.104210 53.671490
1200 77.571300 30.416200 87.037700 36.546430 20.247610 72.612960
1201 19.775800 47.883100 36.760000 9.7129490 14.738760 11.660820
1202 48.665200 64.283200 38.106300 22.490200 30.801350 13.924170
1203 32.602400 49.552600 14.943000 10.744190 16.229650 3.0366250
1204 38.513500 69.318100 19.844600 20.720780 33.865620 6.1908000
1205 44.801100 76.407500 32.309800 27.418220 43.198930 12.103500
1206 33.335100 47.717600 4.8042000 9.9543030 14.929290 1.6432450
1207 51.395600 54.088900 10.834700 17.094120 21.779470 2.6505770
1208 80.449500 56.852200 11.340500 32.917630 31.573020 2.9366270
1209 88.539000 67.219300 20.217900 43.782190 44.220990 6.0999320
1210 90.511000 71.864600 37.127000 49.253960 50.550540 14.473580
1211 5.6767000 14.547800 16.155700 0.8773110 1.1605230 1.7781710
1212 7.0954000 15.979100 23.698000 1.4460660 1.5419410 4.1237600
1213 20.770500 19.852600 24.141100 3.0128090 2.9890760 4.4114070
1214 24.529200 24.324500 31.590200 4.6998230 4.6056610 7.7726820
1215 12.260000 69.099100 25.890100 16.860560 31.678170 8.2221550
1216 17.405100 84.161600 50.375900 29.083620 51.133240 24.891730
1217 25.851700 91.356800 51.198400 35.701040 62.402070 26.926470
1218 35.953900 11.435400 18.935300 4.6057000 2.7524820 2.6032720
1219 44.866500 17.511600 27.279500 7.9250480 5.1179020 5.6703510
1220 81.212000 17.042800 55.256400 28.517700 14.994760 24.797310
1221 93.256200 49.178900 80.519100 50.183710 34.588590 61.303720
1222 95.085100 78.465800 83.751000 66.674790 63.465680 70.517650
1223 17.368500 67.406500 84.147700 27.420120 33.715330 69.138380
1224 16.422200 76.077700 94.710700 36.244040 44.644840 92.786130
1225 42.342100 15.185600 74.758600 14.916400 6.6993630 49.985580
1226 51.455400 22.516000 84.409300 21.503560 10.750060 67.115860
1227 21.884600 18.673100 41.656900 4.6375350 3.3073470 13.370200
1228 30.864100 23.393600 48.943100 7.6595810 5.5450170 18.868840
1229 58.849000 43.911700 51.262500 20.542110 18.378470 21.994630
1230 68.779000 52.702900 8.4840000 24.207430 24.745480 2.2489370
1231 92.843800 68.564400 9.7179000 47.263800 47.085190 3.8335510
1232 91.905300 72.420500 50.067500 52.309370 52.285750 23.757610
1233 90.984700 73.435700 59.019900 53.683760 53.585380 32.756260
1234 34.690300 41.496800 10.187400 8.7572340 11.910520 1.7879850
1235 62.784100 45.357600 13.018200 19.052770 18.758900 2.4083040
1236 73.639000 64.455900 30.906500 33.219750 36.572670 10.075490
1237 81.053700 63.673000 26.506300 37.107280 38.080310 8.0248800
1238 89.023500 64.515300 39.656500 44.507820 42.342350 15.224090
1239 11.075400 64.351700 87.761200 26.637690 30.793350 75.870970
1240 9.0693000 86.677700 91.700300 41.377060 57.986350 87.202470
1241 29.563200 56.452100 11.128000 12.411150 20.703820 2.8737700
1242 33.227200 73.063400 9.7861000 21.149540 37.141680 4.3936390
1243 43.278400 88.587300 17.333200 34.137760 59.002910 8.1178140
1244 52.123300 92.079200 60.617500 44.636590 67.426340 36.972800
1245 66.315200 92.133800 60.069100 50.784040 70.743090 36.452880
1246 11.114400 8.0087000 26.247900 1.3138030 0.7163810 5.0069120
1247 27.204300 14.639100 37.003100 4.5188360 2.7391500 10.452600
1248 32.949500 16.873900 47.146100 6.9850470 4.0473690 17.252640
1249 43.283000 17.707300 59.283500 11.627700 6.2023540 28.831230
1250 70.986500 30.843200 58.510200 24.860410 15.946470 28.486910
1251 76.191900 9.2048000 33.037600 21.774850 11.268360 8.3652860
1252 85.551700 11.876400 35.245600 28.432320 14.930810 9.6591310
1253 91.545700 10.784100 43.930800 33.915630 17.452560 15.254240
1254 91.413300 8.8012000 50.946600 34.598940 17.446120 20.644020
1255 91.120000 50.508300 61.206100 43.828020 32.877570 33.066170
1256 60.724400 8.2350000 10.014000 12.079460 6.4788610 0.6896790
1257 71.446200 7.9375000 20.455000 17.949000 9.4259850 3.0587170
1258 81.950400 15.112100 27.898500 25.442500 13.827740 5.9833320
1259 92.335400 26.813300 45.437800 36.457220 21.358900 16.716940
1260 92.616600 56.558900 57.893100 46.533280 37.647790 29.796580
1261 42.582000 18.014100 47.505300 9.5165650 5.5784970 17.763430
1262 42.126900 43.243800 53.499800 15.043190 15.165200 23.746970
1263 42.115700 43.999000 65.129900 17.579750 16.308030 37.032420
1264 40.251900 5.4734000 17.347800 5.2674260 2.7547630 2.1350180
1265 48.894500 8.7671000 18.615700 7.8435650 4.2394880 2.4828230
1266 52.091300 17.826300 23.467400 9.9266730 6.2563250 4.2092630
1267 55.125300 20.496500 36.881300 12.511170 7.8162270 10.638670
1268 54.403800 58.320500 77.256600 29.482910 28.968420 56.072650
1269 72.802600 62.821500 77.816200 40.642130 37.630080 57.784860
1270 74.334300 74.453300 80.158100 48.426430 50.642850 63.021050
1271 13.954000 14.129800 64.638200 7.2531410 3.2130560 35.050280
1272 23.244700 15.826400 71.519500 10.123870 4.4872270 44.798590
1273 26.349300 51.214800 74.833800 18.863510 19.639560 51.490920
1274 23.391000 65.358200 73.225500 23.824540 31.005070 50.140530
1275 37.540800 72.482900 77.216600 31.438080 40.309630 57.370470
1276 52.637900 81.311200 92.672500 46.814720 55.219120 89.080960
1277 9.7312000 4.0615000 10.227600 0.3721150 0.2368640 0.7115480
1278 16.727600 9.8380000 15.900900 1.2162810 0.8931950 1.6918170
1279 23.664700 13.601900 22.040800 2.6752220 1.9682100 3.5490360
1280 43.428100 27.661100 23.903500 8.6476610 7.5392120 4.6261430
1281 42.030700 33.964700 19.037000 9.1428560 9.5554160 3.2680560
1282 57.295800 34.389200 19.090800 14.271080 12.341210 3.3353830
1283 77.315200 93.680300 18.327700 53.365480 74.910240 9.2799560
1284 87.027100 94.485300 31.906200 61.577410 80.072010 14.898180
1285 20.106500 82.275400 27.428900 25.538170 47.772850 10.534410
1286 42.265900 83.760700 76.440800 39.530770 54.997390 57.701290
1287 63.024000 89.671400 83.478800 53.545990 68.119690 71.299810
1288 88.896700 8.8068000 9.9321000 29.137570 15.370900 0.6549080
1289 92.084700 30.218500 7.3680000 33.921860 21.361650 0.8928100
1290 90.612500 20.357300 9.6630000 31.414050 17.936180 0.8051400
1291 92.222900 53.419800 11.179200 40.117950 33.410480 2.6351850
1292 91.863200 55.735600 32.075000 41.953930 35.477280 9.9923780
1293 58.456700 28.754500 80.641300 23.937510 13.723860 60.277760
1294 69.446600 58.951900 92.520600 42.248130 34.953760 86.193620
1295 79.921000 82.239800 93.446800 61.638450 63.710120 91.078120
1296 100.00000 100.00000 100.00000 93.750160 99.999780 112.66940
1297 7.2072000 31.800800 77.771700 12.712950 8.9254990 54.817490
1298 29.942600 36.436400 85.970200 19.064900 13.081500 70.548920
1299 42.114900 41.069400 91.664700 25.123300 17.461540 82.945250
1300 60.642200 48.432200 93.564500 34.387650 25.064740 87.678210
1301 32.851400 9.4011000 49.312700 6.7117150 3.0552730 18.901820
1302 40.642000 23.450000 56.765800 11.174450 7.1039620 26.221650
1303 40.070400 94.213500 66.920800 44.149660 69.528000 45.166620
1304 13.184100 56.883700 14.833300 10.486800 19.899340 3.5282620
1305 15.492600 95.205200 14.438200 33.903230 66.697420 8.5273500
1306 82.325600 96.352200 50.300800 62.134160 82.165500 27.482430
1307 12.000600 38.093600 24.107600 5.3018700 8.8659740 5.0420320
1308 29.259300 43.619000 25.912100 9.0155790 12.751300 6.1164570
1309 66.887700 29.591700 28.608400 18.524140 13.090350 6.7231220
1310 66.727800 30.595500 36.966200 19.381130 13.643300 11.095440
1311 79.761500 37.022100 54.342400 30.688960 20.981000 24.584230
1312 82.382500 48.631700 63.822600 37.385760 28.582650 35.836870
1313 39.059900 39.455600 77.595500 19.017360 14.676410 55.336540
1314 41.200600 54.990300 79.477900 24.705780 24.412750 59.463910
1315 52.760600 57.162600 92.535100 33.833690 29.481430 85.896310
1316 14.612500 9.1750000 70.973900 8.4907220 3.0062240 43.710810
1317 17.672500 17.328500 84.116000 13.433650 5.6375490 66.222410
1318 76.953100 19.362900 92.001500 36.411630 17.269520 83.008100
1319 82.804200 42.184800 97.065600 46.938330 28.715440 96.477980
1320 17.451700 23.853600 20.637700 2.9384380 3.7539450 3.3426190
1321 26.730500 26.563900 22.026500 4.7235560 5.2667730 3.9350670
1322 10.922400 25.780500 8.8646000 2.2009310 3.8474140 0.8950760
1323 11.594200 33.621400 10.123100 3.6766320 6.6520700 1.3768970
1324 28.702400 35.158900 11.185300 6.1497230 8.3952840 1.5613690
1325 33.784400 38.894200 20.826500 8.4299830 10.772860 4.0709410
1326 60.516400 32.889600 8.8480000 14.967460 12.288510 1.1685380
1327 67.292400 41.237500 9.4765000 20.124250 17.711170 1.6084930
1328 80.033800 41.166600 8.6882000 27.583380 21.564650 1.5570600
1329 92.964700 43.408800 11.098600 37.695990 27.664820 1.9642010
1330 91.706700 80.627200 47.479700 56.701330 61.927630 22.804930
1331 12.461500 79.452400 13.406000 22.121790 43.383940 5.8799040
1332 28.276100 89.848100 15.852400 31.582520 59.144590 7.9082530
1333 9.8481000 51.866500 25.405900 9.1163380 16.460330 6.4241060
1334 73.526100 53.952400 76.734100 36.968480 30.359120 55.137380
1335 89.578000 65.146400 79.551400 53.467710 45.851810 60.974620
1336 67.908400 51.809700 60.470800 28.907530 25.838200 31.953290
1337 70.693900 59.997300 68.258500 35.433190 33.563070 42.598300
1338 61.335600 52.565700 54.302800 24.793590 24.322470 25.328460
1339 61.798400 55.311200 61.108200 27.317000 26.871690 32.921590
1340 10.565200 28.125800 20.181900 3.0246440 4.7686820 3.3504670
1341 11.087800 29.881000 25.455700 3.6846640 5.5105270 5.2936410
1342 10.324000 33.505700 32.659000 4.9037300 7.0597190 8.5477390
1343 40.264000 49.505400 38.954800 14.298220 17.781800 13.148360
1344 60.696700 59.420000 43.249100 25.549940 29.012730 16.841870
1345 80.462300 61.709600 65.951400 41.606660 38.012560 39.823770
1346 30.550000 31.899200 23.684700 6.4028940 7.4910890 4.6969790
1347 34.204400 35.209700 30.205300 8.2887890 9.3591190 7.5303190
1348 54.736900 39.162500 60.861300 19.413880 15.653430 31.546640
1349 76.339700 70.859700 68.002200 44.154430 46.092640 43.463840
1350 86.864700 77.852000 81.454500 59.225960 59.203180 66.107590
1351 39.651100 13.221400 6.4732000 5.2055240 3.3341130 0.3714530
1352 46.430300 14.808300 11.286000 7.2025780 4.5039230 0.9185800
1353 49.073100 75.538800 8.8120000 26.699110 42.160960 4.6139680
1354 59.600700 76.505900 12.710900 31.476830 45.540720 5.3046440
1355 19.232600 48.840700 19.039900 8.5501130 14.745080 4.0520000
1356 19.351800 61.101400 26.222700 13.620860 24.171900 7.5504380
1357 29.625500 65.106200 36.823800 18.042510 29.084260 13.202200
1358 30.575100 33.229400 38.080300 7.9419030 8.4448670 11.707080
1359 44.485100 35.412300 38.371700 11.711440 11.082580 12.021870
1360 78.892400 35.214400 78.851200 35.750870 21.826290 57.877180
1361 89.620500 37.643500 80.371200 44.225720 26.919010 60.431700
1362 91.421600 83.480700 81.886000 66.430790 68.371290 67.697790
1363 90.843200 84.696600 94.901900 71.749630 71.412880 95.062130
1364 92.671200 94.082000 100.00000 82.631470 86.922420 110.42610
1365 80.207000 19.634500 9.4009000 23.793120 13.865030 0.7612570
1366 80.384600 28.811100 15.155800 25.417870 16.612310 2.0120240
1367 92.140600 28.080100 34.581700 35.311890 21.319900 9.7608480
1368 88.580900 25.808900 52.255500 34.457700 19.860590 22.309300
1369 86.745000 55.983900 61.339600 42.463780 35.082680 33.433070
1370 90.429700 66.373000 65.566500 50.913800 46.193680 39.813740
1371 91.932500 72.380700 65.185400 55.208150 53.165140 40.096840
1372 11.466100 16.028500 13.048200 1.1399630 1.4915010 1.2356140
1373 10.840100 32.273100 60.916400 8.7021710 7.8425450 30.820270
1374 11.416800 56.150200 63.286100 15.890070 21.334750 35.030930
1375 37.252900 62.882400 70.819500 24.614150 29.749980 46.424030
1376 45.416500 90.460000 71.352200 43.791420 64.670420 50.736510
1377 63.273200 93.985600 71.786500 53.593830 73.862770 52.509840
1378 10.454400 74.428400 44.631800 21.546520 38.203220 19.124110
1379 17.862700 78.981900 56.309500 26.804090 44.680840 29.765860
1380 10.670000 92.632600 65.600500 37.786360 64.416110 42.804480
1381 9.8898000 92.326500 80.553200 41.629320 65.153810 65.902250
1382 12.516100 92.956200 90.339300 45.801700 67.387920 85.425930
1383 93.990800 10.281000 33.722100 34.669750 18.060520 8.8984750
1384 83.766100 15.989500 20.055700 26.290670 14.487380 3.0278780
1385 92.138800 24.019700 26.612400 33.884740 19.769460 5.7021220
1386 54.182500 12.251100 29.013200 10.586260 5.7918490 6.3380670
1387 62.491300 22.515100 36.041100 15.827070 9.9212540 10.253460
1388 61.157200 11.188200 45.480300 15.134780 7.6855300 16.090580
1389 68.362700 11.266800 57.951700 20.706470 10.161740 27.345850
1390 40.901400 33.333800 27.050900 9.2605820 9.3604810 6.0753560
1391 50.482900 34.280800 32.157100 12.678060 11.323850 8.5183260
1392 65.980300 37.638000 32.993700 20.100310 16.263550 9.1696680
1393 83.810200 43.978300 34.534800 32.540910 25.003550 10.398510
1394 79.199100 36.562500 22.202200 26.620270 19.438080 4.4614510
1395 91.854100 40.747500 23.088500 36.718990 26.097280 5.0363860
1396 92.477500 60.675800 49.227500 46.591620 40.567270 21.675870
1397 71.767300 28.960600 6.2946000 19.971420 13.821130 0.7647830
1398 72.521600 34.840500 12.881400 21.687180 16.376400 1.8188940
1399 52.643600 38.691900 8.9663000 13.040810 13.128630 1.4395540
1400 51.999900 38.237900 21.139000 13.224680 13.053550 4.1439930
1401 63.277000 41.995700 40.255300 20.551570 17.889710 13.664390
1402 8.6395000 9.5305000 13.002200 0.5538290 0.5443760 1.1192490
1403 10.547200 13.739000 17.597200 1.1267720 1.2260290 2.2080210
1404 12.371300 18.628700 18.477600 1.7225810 2.1851730 2.5849560
1405 12.565500 40.425200 19.461900 5.6106180 9.8967280 3.7241380
1406 27.464100 64.989400 22.039700 16.353660 28.332940 6.4396620
1407 58.073100 84.332900 36.243700 37.630550 56.110660 15.431620
1408 13.978300 8.7652000 5.7998000 0.7094060 0.6161780 0.2831890
1409 16.309600 13.440700 8.8613000 1.2126300 1.2903610 0.5965340
1410 24.907600 16.269100 8.6659000 2.5208490 2.2555230 0.6390670
1411 37.080500 68.768000 47.700200 22.869790 34.146570 20.969250
1412 42.616900 76.297100 58.252700 30.281190 43.942060 31.746480
1413 93.746500 89.591700 75.873300 70.764950 77.481780 58.441400
1414 100.00000 100.00000 100.00000 93.782260 100.00590 112.64500
1415 22.543100 42.800800 39.658200 8.9928420 12.212310 13.151540
1416 26.993700 48.303000 53.376400 13.103240 16.276200 23.831300
1417 29.629000 51.725700 61.321700 16.221700 19.219340 32.742160
1418 7.7131000 42.046900 43.747900 7.9318820 11.296500 15.556220
1419 9.1212000 51.641600 52.280500 11.972870 17.286300 22.932200
1420 8.4866000 59.606900 73.858600 19.851160 25.026980 50.291010
1421 13.553000 68.870700 97.137200 33.170810 36.911840 98.346370
1422 70.619000 7.3593000 45.682200 19.843680 9.8650830 16.317620
1423 84.517300 8.1092000 61.965200 31.498570 15.362290 32.212100
1424 91.329500 42.939200 91.818200 51.024030 31.582520 83.661220
1425 8.9270000 9.1360000 16.490400 0.6662060 0.5479150 1.8166310
1426 10.243400 19.898200 33.353800 2.7867530 2.7312670 8.4189030
1427 16.109200 26.665300 40.403400 4.8955860 5.0725980 12.785340
1428 14.055700 68.478700 49.675100 19.261660 31.996280 22.331530
1429 13.273500 71.326200 67.819600 24.308640 36.184660 42.689360
1430 15.230600 81.153400 78.002800 33.266040 49.067490 59.962970
1431 33.749200 84.057500 81.041600 39.084920 54.868360 65.712930
1432 50.117000 85.926600 91.095800 48.463310 60.921460 86.174850
1433 24.011100 31.876600 33.738800 6.1065100 7.1931540 9.0972620
1434 47.362800 31.792100 51.443600 13.513560 10.567790 21.326630
1435 39.447100 10.089000 29.646000 6.0873370 3.2812730 6.6157730
1436 47.088800 13.899900 31.455400 8.5603080 4.9095000 7.4990680
1437 49.887100 44.185300 38.111900 15.482790 16.144380 12.397530
1438 63.498100 50.902900 45.513900 23.863180 23.270000 17.736970
1439 14.990600 92.394000 27.631300 32.350760 62.340250 12.251480
1440 17.119400 92.252700 72.444200 39.707200 64.567340 52.537770
1441 52.468900 91.790100 86.172800 51.737330 69.420430 76.666070
1442 9.7637000 41.414500 54.841400 9.4730540 11.535550 24.574950
1443 17.562600 46.677000 63.068800 13.214900 15.239890 34.286280
1444 90.611900 46.253500 69.216900 44.017250 30.741050 43.286450
1445 91.867000 55.263100 68.972900 47.948210 37.190740 43.651020
1446 44.138500 65.127400 11.215500 19.585230 30.073210 3.6938160
1447 61.532400 66.524700 19.973600 27.132790 35.086530 5.9386050
1448 69.800000 88.641600 28.579300 45.740050 65.085970 12.210170
1449 10.333000 22.622500 31.226000 2.9526770 3.3649700 7.4385770
1450 11.893100 26.073100 31.592600 3.5680440 4.4133440 7.7008910
1451 12.620500 34.097700 47.268500 6.8242620 7.8908850 17.829500
1452 16.516300 35.150000 54.154500 8.4218950 8.8723400 23.809970
1453 52.633400 65.943100 72.918700 31.173320 35.291570 50.025050
1454 85.119200 66.757900 93.239800 56.052970 47.486470 88.729610
1455 22.102000 10.300400 24.738600 2.4128500 1.4773080 4.4701280
1456 29.707000 19.764900 27.712600 4.6640210 3.7787470 5.8765940
1457 30.387800 38.446600 37.495000 8.9940130 10.686610 11.596890
1458 38.627400 43.934200 47.105300 13.316430 14.724500 18.390850
1459 43.335400 52.070600 48.770400 17.216700 20.300360 20.225200
1460 79.798100 67.522400 54.266600 41.579540 42.697000 26.759170
1461 48.258400 45.671400 18.581700 13.744050 16.115460 3.7812260
1462 50.291100 57.251300 44.682300 20.708490 25.128250 17.630510
1463 54.665600 71.611400 69.468000 34.028670 41.367940 45.560210
1464 72.469000 81.007700 76.813500 50.335590 57.829950 58.227900
1465 30.592000 16.230900 7.3585000 3.4642520 2.7413120 0.5131490
1466 33.897500 27.705600 28.216600 6.6739420 6.4749790 6.3348470
1467 89.849700 41.941700 39.838600 36.992180 26.431050 13.534890
1468 89.184300 50.133800 48.073700 39.903830 31.190000 19.885550
1469 42.010000 41.221400 7.2199000 10.356220 12.628810 1.4042200
1470 56.889600 58.157000 62.891200 26.702560 28.155420 35.366820
1471 64.449600 63.190400 72.130300 34.633090 35.119770 48.498360
1472 84.700500 67.306600 74.516700 49.556130 45.743170 52.981320
1473 7.5747000 8.4664000 20.794600 0.8229900 0.5636190 3.0248990
1474 10.720000 9.4982000 51.961800 4.1963380 1.6751660 20.959320
1475 20.374600 8.5480000 58.422000 6.2105900 2.4302780 27.536050
1476 56.430400 15.197400 66.131000 17.178270 8.3590070 37.360480
1477 90.982600 26.058000 77.895900 42.297250 22.735610 55.849700
1478 64.538500 59.733200 8.6892000 24.849660 29.171010 2.8688790
1479 77.760700 68.993100 24.450800 37.527750 42.346370 7.7523810
1480 79.333100 84.900000 37.705900 49.616710 62.904900 16.503080
1481 84.469900 93.864200 64.208500 64.172280 79.607490 42.056170
1482 14.585800 23.291400 10.834100 2.1430230 3.2889190 1.0715060
1483 13.162000 47.262400 54.745900 11.303100 14.848690 24.984980
1484 72.935700 73.177200 65.971800 42.965660 47.493970 41.080840
1485 81.566300 77.009900 66.499500 50.608960 54.798370 42.151280
1486 89.860100 82.178400 75.248600 62.297370 65.305570 56.169010
1487 62.629300 57.106500 33.472000 24.365610 27.148060 10.677500
1488 73.867700 57.531500 46.761300 32.084300 31.136040 19.337690
1489 84.828600 90.738800 84.879900 67.824680 76.684860 74.380850
1490 11.400800 42.044400 79.193200 15.752340 13.827100 58.056120
1491 28.181700 45.612500 81.743000 19.572800 17.065700 62.898290
1492 34.692400 54.977300 88.708100 26.400750 24.603010 77.231180
1493 14.354000 53.860600 93.621900 24.832910 22.820010 88.066160
1494 15.540100 62.061800 93.971800 28.452480 29.671530 89.512880
1495 37.208500 73.009000 94.250300 37.966400 42.986150 91.791580
1496 5.1271000 39.075500 90.091900 18.571230 13.458160 79.031400
1497 40.027200 52.096800 92.084500 28.008770 23.668480 84.555670
1498 16.332900 17.208700 30.751700 2.7111520 2.3077320 7.1671380
1499 23.756800 17.800500 50.040900 5.9282680 3.6052010 19.648800
1500 58.364300 41.263300 56.215400 20.435270 17.130690 26.538920
1501 72.141900 53.041200 57.163600 31.018810 27.698140 28.335330
1502 80.562200 56.590800 67.156300 39.817060 33.821890 41.057360
1503 27.918000 80.223200 42.337500 26.913520 46.253500 18.528580
1504 31.176700 90.542200 75.835600 41.649710 63.450670 57.905040
1505 49.778400 91.260900 79.471600 48.188740 67.409300 64.273570
1506 12.044000 36.534400 28.762900 5.3294010 8.3050000 6.9159730
1507 13.510700 43.688800 37.581100 8.0171270 12.101890 11.855030
1508 14.650300 51.015500 46.902400 11.344990 16.797890 18.525460
1509 15.245500 19.431300 10.823500 1.7235730 2.3602990 0.9802980
1510 18.163700 24.351900 25.202200 3.3869320 4.0405290 4.9910860
1511 20.398200 24.112200 44.514500 5.4898740 4.6938080 15.486810
1512 3.4904000 68.121000 74.516900 24.022330 33.192860 52.118670
1513 15.155400 71.677600 80.738600 28.355830 37.829380 63.254750
1514 17.606600 78.570300 82.150400 33.125080 46.317540 66.574020
1515 33.735600 84.441700 88.661000 42.073970 56.235460 80.658030
1516 93.738000 86.447200 91.210200 73.679690 74.518120 86.819310
1517 46.690300 5.2689000 70.869500 14.431520 5.9151280 43.888500
1518 47.615700 11.164200 91.924200 21.904670 8.6340700 82.638230
1519 58.893500 9.8328000 97.065800 28.216050 11.274520 95.317770
1520 60.108800 2.7390000 66.817300 18.280220 8.0827030 38.286060
1521 77.876000 13.871600 78.481400 31.698980 15.068820 56.447710
1522 91.082000 19.719100 83.998700 43.453130 21.615350 66.709680
1523 90.958600 63.101500 89.153100 56.869200 45.536710 79.464080
1524 94.243600 74.569600 91.774600 66.670400 59.445700 86.428450
1525 6.8692000 16.370100 13.481000 0.9746320 1.4427440 1.3748200
1526 7.2170000 55.569100 89.524100 23.441560 23.384220 79.134530
1527 31.623900 61.041300 89.838400 28.731200 29.496210 80.326210
1528 42.964200 67.933800 91.827400 35.589890 37.867700 85.339020
1529 31.770200 14.215100 92.050000 18.246470 7.0719610 82.787950
1530 44.311200 22.502400 92.382600 22.385080 10.536550 84.012120
1531 46.703600 65.445500 47.491300 23.647710 31.985560 20.428290
1532 54.525600 66.196600 53.294600 27.505910 34.384270 25.504600
1533 73.531000 79.931100 52.640700 44.708340 54.973000 26.822880
1534 82.277200 82.580600 59.575900 53.175050 61.698430 34.461340
1535 19.386900 19.657600 8.9431000 2.1569130 2.6296890 0.7312540
1536 29.598700 19.597800 15.587900 3.8875780 3.4908990 1.8305420
1537 30.923500 67.776100 58.786200 22.870130 33.024540 31.248300
1538 33.879100 74.623900 69.639000 29.762190 41.711770 45.971960
1539 29.521900 16.085700 58.371700 8.1294350 4.1357320 27.799260
1540 42.801100 27.375800 66.624300 14.450380 9.2531470 38.183610
1541 48.335500 32.375700 80.082700 20.723300 13.073690 59.459890
1542 55.964400 50.420000 87.045300 30.475750 24.488110 73.570540
1543 63.587000 84.055800 89.863500 52.164920 60.973680 83.325430
1544 74.633100 95.234800 91.611500 67.321970 81.242930 88.930510
1545 62.392300 23.181600 92.219000 29.039810 14.161960 83.574770
END_DATA
CAL    

DESCRIPTOR "Argyll Device Calibration State"
ORIGINATOR "Argyll dispread"
CREATED "Wed May 01 17:28:17 2019"
DEVICE_CLASS "DISPLAY"
COLOR_REP "RGB"

BEGIN_ARGYLL_DISPCAL_ARGS
-v2 -w0.3127,0.329 -b -dmadvr -c1 -yn -Ibw
END_ARGYLL_DISPCAL_ARGS

TV_OUTPUT_ENCODING "NO"

NUMBER_OF_FIELDS 4
BEGIN_DATA_FORMAT
RGB_I RGB_R RGB_G RGB_B
END_DATA_FORMAT

NUMBER_OF_SETS 256
BEGIN_DATA
0.00000000 0.00000000 0.00000000 0.00000000
0.00392157 0.00392157 0.00392157 0.00392157
0.00784314 0.00784314 0.00784314 0.00784314
0.01176470 0.01176470 0.01176470 0.01176470
0.01568630 0.01568630 0.01568630 0.01568630
0.01960780 0.01960780 0.01960780 0.01960780
0.02352940 0.02352940 0.02352940 0.02352940
0.02745100 0.02745100 0.02745100 0.02745100
0.03137250 0.03137250 0.03137250 0.03137250
0.03529410 0.03529410 0.03529410 0.03529410
0.03921570 0.03921570 0.03921570 0.03921570
0.04313730 0.04313730 0.04313730 0.04313730
0.04705880 0.04705880 0.04705880 0.04705880
0.05098040 0.05098040 0.05098040 0.05098040
0.05490200 0.05490200 0.05490200 0.05490200
0.05882350 0.05882350 0.05882350 0.05882350
0.06274510 0.06274510 0.06274510 0.06274510
0.06666670 0.06666670 0.06666670 0.06666670
0.07058820 0.07058820 0.07058820 0.07058820
0.07450980 0.07450980 0.07450980 0.07450980
0.07843140 0.07843140 0.07843140 0.07843140
0.08235290 0.08235290 0.08235290 0.08235290
0.08627450 0.08627450 0.08627450 0.08627450
0.09019610 0.09019610 0.09019610 0.09019610
0.09411760 0.09411760 0.09411760 0.09411760
0.09803920 0.09803920 0.09803920 0.09803920
0.10196100 0.10196100 0.10196100 0.10196100
0.10588200 0.10588200 0.10588200 0.10588200
0.10980400 0.10980400 0.10980400 0.10980400
0.11372500 0.11372500 0.11372500 0.11372500
0.11764700 0.11764700 0.11764700 0.11764700
0.12156900 0.12156900 0.12156900 0.12156900
0.12549000 0.12549000 0.12549000 0.12549000
0.12941200 0.12941200 0.12941200 0.12941200
0.13333300 0.13333300 0.13333300 0.13333300
0.13725500 0.13725500 0.13725500 0.13725500
0.14117600 0.14117600 0.14117600 0.14117600
0.14509800 0.14509800 0.14509800 0.14509800
0.14902000 0.14902000 0.14902000 0.14902000
0.15294100 0.15294100 0.15294100 0.15294100
0.15686300 0.15686300 0.15686300 0.15686300
0.16078400 0.16078400 0.16078400 0.16078400
0.16470600 0.16470600 0.16470600 0.16470600
0.16862700 0.16862700 0.16862700 0.16862700
0.17254900 0.17254900 0.17254900 0.17254900
0.17647100 0.17647100 0.17647100 0.17647100
0.18039200 0.18039200 0.18039200 0.18039200
0.18431400 0.18431400 0.18431400 0.18431400
0.18823500 0.18823500 0.18823500 0.18823500
0.19215700 0.19215700 0.19215700 0.19215700
0.19607800 0.19607800 0.19607800 0.19607800
0.20000000 0.20000000 0.20000000 0.20000000
0.20392200 0.20392200 0.20392200 0.20392200
0.20784300 0.20784300 0.20784300 0.20784300
0.21176500 0.21176500 0.21176500 0.21176500
0.21568600 0.21568600 0.21568600 0.21568600
0.21960800 0.21960800 0.21960800 0.21960800
0.22352900 0.22352900 0.22352900 0.22352900
0.22745100 0.22745100 0.22745100 0.22745100
0.23137300 0.23137300 0.23137300 0.23137300
0.23529400 0.23529400 0.23529400 0.23529400
0.23921600 0.23921600 0.23921600 0.23921600
0.24313700 0.24313700 0.24313700 0.24313700
0.24705900 0.24705900 0.24705900 0.24705900
0.25098000 0.25098000 0.25098000 0.25098000
0.25490200 0.25490200 0.25490200 0.25490200
0.25882400 0.25882400 0.25882400 0.25882400
0.26274500 0.26274500 0.26274500 0.26274500
0.26666700 0.26666700 0.26666700 0.26666700
0.27058800 0.27058800 0.27058800 0.27058800
0.27451000 0.27451000 0.27451000 0.27451000
0.27843100 0.27843100 0.27843100 0.27843100
0.28235300 0.28235300 0.28235300 0.28235300
0.28627500 0.28627500 0.28627500 0.28627500
0.29019600 0.29019600 0.29019600 0.29019600
0.29411800 0.29411800 0.29411800 0.29411800
0.29803900 0.29803900 0.29803900 0.29803900
0.30196100 0.30196100 0.30196100 0.30196100
0.30588200 0.30588200 0.30588200 0.30588200
0.30980400 0.30980400 0.30980400 0.30980400
0.31372500 0.31372500 0.31372500 0.31372500
0.31764700 0.31764700 0.31764700 0.31764700
0.32156900 0.32156900 0.32156900 0.32156900
0.32549000 0.32549000 0.32549000 0.32549000
0.32941200 0.32941200 0.32941200 0.32941200
0.33333300 0.33333300 0.33333300 0.33333300
0.33725500 0.33725500 0.33725500 0.33725500
0.34117600 0.34117600 0.34117600 0.34117600
0.34509800 0.34509800 0.34509800 0.34509800
0.34902000 0.34902000 0.34902000 0.34902000
0.35294100 0.35294100 0.35294100 0.35294100
0.35686300 0.35686300 0.35686300 0.35686300
0.36078400 0.36078400 0.36078400 0.36078400
0.36470600 0.36470600 0.36470600 0.36470600
0.36862700 0.36862700 0.36862700 0.36862700
0.37254900 0.37254900 0.37254900 0.37254900
0.37647100 0.37647100 0.37647100 0.37647100
0.38039200 0.38039200 0.38039200 0.38039200
0.38431400 0.38431400 0.38431400 0.38431400
0.38823500 0.38823500 0.38823500 0.38823500
0.39215700 0.39215700 0.39215700 0.39215700
0.39607800 0.39607800 0.39607800 0.39607800
0.40000000 0.40000000 0.40000000 0.40000000
0.40392200 0.40392200 0.40392200 0.40392200
0.40784300 0.40784300 0.40784300 0.40784300
0.41176500 0.41176500 0.41176500 0.41176500
0.41568600 0.41568600 0.41568600 0.41568600
0.41960800 0.41960800 0.41960800 0.41960800
0.42352900 0.42352900 0.42352900 0.42352900
0.42745100 0.42745100 0.42745100 0.42745100
0.43137300 0.43137300 0.43137300 0.43137300
0.43529400 0.43529400 0.43529400 0.43529400
0.43921600 0.43921600 0.43921600 0.43921600
0.44313700 0.44313700 0.44313700 0.44313700
0.44705900 0.44705900 0.44705900 0.44705900
0.45098000 0.45098000 0.45098000 0.45098000
0.45490200 0.45490200 0.45490200 0.45490200
0.45882400 0.45882400 0.45882400 0.45882400
0.46274500 0.46274500 0.46274500 0.46274500
0.46666700 0.46666700 0.46666700 0.46666700
0.47058800 0.47058800 0.47058800 0.47058800
0.47451000 0.47451000 0.47451000 0.47451000
0.47843100 0.47843100 0.47843100 0.47843100
0.48235300 0.48235300 0.48235300 0.48235300
0.48627500 0.48627500 0.48627500 0.48627500
0.49019600 0.49019600 0.49019600 0.49019600
0.49411800 0.49411800 0.49411800 0.49411800
0.49803900 0.49803900 0.49803900 0.49803900
0.50196100 0.50196100 0.50196100 0.50196100
0.50588200 0.50588200 0.50588200 0.50588200
0.50980400 0.50980400 0.50980400 0.50980400
0.51372500 0.51372500 0.51372500 0.51372500
0.51764700 0.51764700 0.51764700 0.51764700
0.52156900 0.52156900 0.52156900 0.52156900
0.52549000 0.52549000 0.52549000 0.52549000
0.52941200 0.52941200 0.52941200 0.52941200
0.53333300 0.53333300 0.53333300 0.53333300
0.53725500 0.53725500 0.53725500 0.53725500
0.54117600 0.54117600 0.54117600 0.54117600
0.54509800 0.54509800 0.54509800 0.54509800
0.54902000 0.54902000 0.54902000 0.54902000
0.55294100 0.55294100 0.55294100 0.55294100
0.55686300 0.55686300 0.55686300 0.55686300
0.56078400 0.56078400 0.56078400 0.56078400
0.56470600 0.56470600 0.56470600 0.56470600
0.56862700 0.56862700 0.56862700 0.56862700
0.57254900 0.57254900 0.57254900 0.57254900
0.57647100 0.57647100 0.57647100 0.57647100
0.58039200 0.58039200 0.58039200 0.58039200
0.58431400 0.58431400 0.58431400 0.58431400
0.58823500 0.58823500 0.58823500 0.58823500
0.59215700 0.59215700 0.59215700 0.59215700
0.59607800 0.59607800 0.59607800 0.59607800
0.60000000 0.60000000 0.60000000 0.60000000
0.60392200 0.60392200 0.60392200 0.60392200
0.60784300 0.60784300 0.60784300 0.60784300
0.61176500 0.61176500 0.61176500 0.61176500
0.61568600 0.61568600 0.61568600 0.61568600
0.61960800 0.61960800 0.61960800 0.61960800
0.62352900 0.62352900 0.62352900 0.62352900
0.62745100 0.62745100 0.62745100 0.62745100
0.63137300 0.63137300 0.63137300 0.63137300
0.63529400 0.63529400 0.63529400 0.63529400
0.63921600 0.63921600 0.63921600 0.63921600
0.64313700 0.64313700 0.64313700 0.64313700
0.64705900 0.64705900 0.64705900 0.64705900
0.65098000 0.65098000 0.65098000 0.65098000
0.65490200 0.65490200 0.65490200 0.65490200
0.65882400 0.65882400 0.65882400 0.65882400
0.66274500 0.66274500 0.66274500 0.66274500
0.66666700 0.66666700 0.66666700 0.66666700
0.67058800 0.67058800 0.67058800 0.67058800
0.67451000 0.67451000 0.67451000 0.67451000
0.67843100 0.67843100 0.67843100 0.67843100
0.68235300 0.68235300 0.68235300 0.68235300
0.68627500 0.68627500 0.68627500 0.68627500
0.69019600 0.69019600 0.69019600 0.69019600
0.69411800 0.69411800 0.69411800 0.69411800
0.69803900 0.69803900 0.69803900 0.69803900
0.70196100 0.70196100 0.70196100 0.70196100
0.70588200 0.70588200 0.70588200 0.70588200
0.70980400 0.70980400 0.70980400 0.70980400
0.71372500 0.71372500 0.71372500 0.71372500
0.71764700 0.71764700 0.71764700 0.71764700
0.72156900 0.72156900 0.72156900 0.72156900
0.72549000 0.72549000 0.72549000 0.72549000
0.72941200 0.72941200 0.72941200 0.72941200
0.73333300 0.73333300 0.73333300 0.73333300
0.73725500 0.73725500 0.73725500 0.73725500
0.74117600 0.74117600 0.74117600 0.74117600
0.74509800 0.74509800 0.74509800 0.74509800
0.74902000 0.74902000 0.74902000 0.74902000
0.75294100 0.75294100 0.75294100 0.75294100
0.75686300 0.75686300 0.75686300 0.75686300
0.76078400 0.76078400 0.76078400 0.76078400
0.76470600 0.76470600 0.76470600 0.76470600
0.76862700 0.76862700 0.76862700 0.76862700
0.77254900 0.77254900 0.77254900 0.77254900
0.77647100 0.77647100 0.77647100 0.77647100
0.78039200 0.78039200 0.78039200 0.78039200
0.78431400 0.78431400 0.78431400 0.78431400
0.78823500 0.78823500 0.78823500 0.78823500
0.79215700 0.79215700 0.79215700 0.79215700
0.79607800 0.79607800 0.79607800 0.79607800
0.80000000 0.80000000 0.80000000 0.80000000
0.80392200 0.80392200 0.80392200 0.80392200
0.80784300 0.80784300 0.80784300 0.80784300
0.81176500 0.81176500 0.81176500 0.81176500
0.81568600 0.81568600 0.81568600 0.81568600
0.81960800 0.81960800 0.81960800 0.81960800
0.82352900 0.82352900 0.82352900 0.82352900
0.82745100 0.82745100 0.82745100 0.82745100
0.83137300 0.83137300 0.83137300 0.83137300
0.83529400 0.83529400 0.83529400 0.83529400
0.83921600 0.83921600 0.83921600 0.83921600
0.84313700 0.84313700 0.84313700 0.84313700
0.84705900 0.84705900 0.84705900 0.84705900
0.85098000 0.85098000 0.85098000 0.85098000
0.85490200 0.85490200 0.85490200 0.85490200
0.85882400 0.85882400 0.85882400 0.85882400
0.86274500 0.86274500 0.86274500 0.86274500
0.86666700 0.86666700 0.86666700 0.86666700
0.87058800 0.87058800 0.87058800 0.87058800
0.87451000 0.87451000 0.87451000 0.87451000
0.87843100 0.87843100 0.87843100 0.87843100
0.88235300 0.88235300 0.88235300 0.88235300
0.88627500 0.88627500 0.88627500 0.88627500
0.89019600 0.89019600 0.89019600 0.89019600
0.89411800 0.89411800 0.89411800 0.89411800
0.89803900 0.89803900 0.89803900 0.89803900
0.90196100 0.90196100 0.90196100 0.90196100
0.90588200 0.90588200 0.90588200 0.90588200
0.90980400 0.90980400 0.90980400 0.90980400
0.91372500 0.91372500 0.91372500 0.91372500
0.91764700 0.91764700 0.91764700 0.91764700
0.92156900 0.92156900 0.92156900 0.92156900
0.92549000 0.92549000 0.92549000 0.92549000
0.92941200 0.92941200 0.92941200 0.92941200
0.93333300 0.93333300 0.93333300 0.93333300
0.93725500 0.93725500 0.93725500 0.93725500
0.94117600 0.94117600 0.94117600 0.94117600
0.94509800 0.94509800 0.94509800 0.94509800
0.94902000 0.94902000 0.94902000 0.94902000
0.95294100 0.95294100 0.95294100 0.95294100
0.95686300 0.95686300 0.95686300 0.95686300
0.96078400 0.96078400 0.96078400 0.96078400
0.96470600 0.96470600 0.96470600 0.96470600
0.96862700 0.96862700 0.96862700 0.96862700
0.97254900 0.97254900 0.97254900 0.97254900
0.97647100 0.97647100 0.97647100 0.97647100
0.98039200 0.98039200 0.98039200 0.98039200
0.98431400 0.98431400 0.98431400 0.98431400
0.98823500 0.98823500 0.98823500 0.98823500
0.99215700 0.99215700 0.99215700 0.99215700
0.99607800 0.99607800 0.99607800 0.99607800
1.00000000 1.00000000 1.00000000 1.00000000
END_DATA
