CTI3   

DESCRIPTOR "Argyll Calibration Target chart information 3"
ORIGINATOR "Argyll dispread"
CREATED "Wed May 01 17:28:17 2019"
DEVICE_CLASS "DISPLAY"
SINGLE_DIM_STEPS "33"
COMP_GREY_STEPS "97"
DARK_REGION_EMPHASIS "1.6"
COLOR_REP "RGB_XYZ"
TARGET_INSTRUMENT "X-Rite i1 DisplayPro, ColorMunki Display"
DISPLAY_TYPE_REFRESH "NO"
DISPLAY_TYPE_BASE_ID "1"
INSTRUMENT_TYPE_SPECTRAL "NO"
LUMINANCE_XYZ_CDM2 "202.571729 216.086284 243.409391"
NORMALIZED_TO_Y_100 "YES"
VIDEO_LUT_CALIBRATION_POSSIBLE "YES"

BEGIN_ARGYLL_COLPROF_ARGS
-v -qh -aX -bl -C "No copyright. Created with DisplayCAL 3.8.0.0 and ArgyllCMS 2.1.0_mod" -M "madVR"
END_ARGYLL_COLPROF_ARGS

OBSERVER "1931_2"
USE_BLACK_POINT_COMPENSATION "NO"
BLACK_POINT_CORRECTION "0.0"
HIRES_B2A "NO"
HIRES_B2A_SIZE "-1"
SMOOTH_B2A "YES"
PATCH_SEQUENCE "OPTIMIZE_DISPLAY_RESPONSE_DELAY"
3DLUT_HDR_MAXMLL_ALT_CLIP "1"
3DLUT_HDR_SAT "0.5"
3DLUT_HDR_PEAK_LUMINANCE "480.0"
3DLUT_HDR_MAXMLL "10000.0"
3DLUT_GAMUT_MAPPING_MODE "G"
3DLUT_HDR_MINMLL "0.0"
3DLUT_SOURCE_PROFILE "ref/Rec709.icm"
3DLUT_RENDERING_INTENT "aw"
3DLUT_HDR_DISPLAY "0"
3DLUT_FORMAT "madVR"
3DLUT_HDR_AMBIENT_LUMINANCE "5.0"
3DLUT_APPLY_CAL "1"
3DLUT_SIZE "65"
3DLUT_GAMMA "-2.4"
3DLUT_INPUT_ENCODING "t"
3DLUT_OUTPUT_ENCODING "t"
3DLUT_INPUT_BITDEPTH "10"
3DLUT_TRC "bt1886"
3DLUT_OUTPUT_BITDEPTH "12"
3DLUT_DEGREE_OF_BLACK_OUTPUT_OFFSET "0.0"
3DLUT_HDR_HUE "0.5"
3DLUT_CONTENT_COLORSPACE_WHITE_X "0.3127"
3DLUT_CONTENT_COLORSPACE_WHITE_Y "0.329"
3DLUT_CONTENT_COLORSPACE_RED_X "0.68"
3DLUT_CONTENT_COLORSPACE_RED_Y "0.32"
3DLUT_CONTENT_COLORSPACE_GREEN_X "0.265"
3DLUT_CONTENT_COLORSPACE_GREEN_Y "0.69"
3DLUT_CONTENT_COLORSPACE_BLUE_X "0.15"
3DLUT_CONTENT_COLORSPACE_BLUE_Y "0.06"

NUMBER_OF_FIELDS 7
BEGIN_DATA_FORMAT
SAMPLE_ID RGB_R RGB_G RGB_B XYZ_X XYZ_Y XYZ_Z
END_DATA_FORMAT

NUMBER_OF_SETS 1545
BEGIN_DATA
1 100.00000 100.00000 100.00000 93.745760 100.000000 112.64450
2 1.9608000 1.9608000 1.9608000 0.0921967 0.0983438 0.1097426
3 3.9216000 3.9216000 3.9216000 0.1126783 0.1195746 0.1375335
4 5.8824000 5.8824000 5.8824000 0.1872923 0.1977186 0.2336858
5 9.8039000 9.8039000 9.8039000 0.5347926 0.5654116 0.6497168
6 13.726000 13.726000 13.726000 1.2017773 1.2746988 1.3960919
7 17.647000 17.647000 17.647000 2.0790923 2.2108110 2.3683373
8 21.569000 21.569000 21.569000 3.1979113 3.4022632 3.6048373
9 25.490000 25.490000 25.490000 4.5620224 4.8556715 5.1169063
10 29.412000 29.412000 29.412000 6.1536938 6.5508708 6.8763682
11 33.333000 33.333000 33.333000 8.0499141 8.5728752 8.9766168
12 37.255000 37.255000 37.255000 10.159544 10.808163 11.316923
13 41.176000 41.176000 41.176000 12.464034 13.273223 13.915594
14 45.098000 45.098000 45.098000 15.004575 15.984534 16.768554
15 49.020000 49.020000 49.020000 17.829305 19.013074 19.948775
16 52.941000 52.941000 52.941000 21.054926 22.481935 23.577145
17 56.863000 56.863000 56.863000 24.724246 26.372946 27.734496
18 60.784000 60.784000 60.784000 28.819507 30.794107 32.425167
19 64.706000 64.706000 64.706000 33.468378 35.760267 37.733698
20 68.627000 68.627000 68.627000 38.442169 41.079729 43.484609
21 72.549000 72.549000 72.549000 43.722360 46.751860 49.590460
22 76.471000 76.471000 76.471000 49.446271 52.846161 56.225381
23 80.392000 80.392000 80.392000 55.689563 59.558192 63.481902
24 84.314000 84.314000 84.314000 62.378584 66.657784 71.354334
25 88.235000 88.235000 88.235000 69.367155 74.129425 79.670735
26 92.157000 92.157000 92.157000 76.804227 82.062607 88.781687
27 96.078000 96.078000 96.078000 85.161638 90.934738 99.393318
28 39.056800 25.776300 38.698100 8.5104591 6.7726949 11.697065
29 39.232800 31.981600 44.735500 10.281011 9.1127513 15.822416
30 42.241900 48.794100 61.852500 18.083115 18.646354 32.855968
31 0.0000000 1.4451000 0.0000000 0.0885265 0.0957449 0.1056813
32 0.0000000 2.9412000 0.0000000 0.0917864 0.1019686 0.1079401
33 31.292100 14.958300 16.408300 3.7407709 2.6948081 1.8796041
34 58.569800 29.686300 21.378100 14.015370 10.841903 3.8406599
35 76.198400 39.870100 37.902900 26.736392 20.321094 11.988000
36 100.00000 50.589000 46.203300 48.404125 35.706507 18.518892
37 4.4910000 0.0000000 0.0000000 0.1048593 0.1022746 0.1067804
38 6.0976000 0.0000000 0.0000000 0.1282942 0.1145196 0.1103157
39 7.7640000 0.0000000 0.0000000 0.1879766 0.1451416 0.1154244
40 9.4937000 0.0000000 0.0000000 0.2405849 0.1720496 0.1205504
41 11.290300 0.0000000 0.0000000 0.3424748 0.2247216 0.1284862
42 13.157900 0.0000000 0.0000000 0.4750155 0.2931336 0.1373476
43 15.100700 0.0000000 0.0000000 0.6034453 0.3597856 0.1437602
44 17.123300 0.0000000 0.0000000 0.8112669 0.4670646 0.1515229
45 19.230800 0.0000000 0.0000000 1.0320013 0.5815606 0.1561137
46 21.428600 0.0000000 0.0000000 1.3016405 0.7212217 0.1608520
47 23.722600 0.0000000 0.0000000 1.6063191 0.8792197 0.1620953
48 26.119400 0.0000000 0.0000000 1.9627958 1.0640317 0.1635649
49 28.625900 0.0000000 0.0000000 2.3931054 1.2873368 0.1636421
50 31.250000 0.0000000 0.0000000 2.8527797 1.5260988 0.1627309
51 34.000000 0.0000000 0.0000000 3.3850024 1.8022669 0.1624252
52 36.885200 0.0000000 0.0000000 4.0052196 2.1237019 0.1615334
53 39.916000 0.0000000 0.0000000 4.7294525 2.5000510 0.1601025
54 43.103500 0.0000000 0.0000000 5.5257212 2.9128941 0.1580844
55 46.460200 0.0000000 0.0000000 6.4556531 3.3956802 0.1564340
56 50.000000 0.0000000 0.0000000 7.5267791 3.9513543 0.1547052
57 53.738300 0.0000000 0.0000000 8.8069366 4.6162944 0.1524452
58 57.692300 0.0000000 0.0000000 10.354892 5.4210116 0.1496803
59 61.881200 0.0000000 0.0000000 12.209402 6.3792938 0.1453789
60 66.326500 0.0000000 0.0000000 14.397953 7.5186520 0.1419284
61 71.052600 0.0000000 0.0000000 16.930743 8.8313493 0.1375078
62 76.087000 0.0000000 0.0000000 19.951903 10.401163 0.1333192
63 81.460700 0.0000000 0.0000000 23.354784 12.163793 0.1259395
64 81.537200 0.0000000 20.195800 23.946994 12.368263 2.9236049
65 86.017100 0.0000000 54.579300 30.809044 15.133823 23.769089
66 100.00000 0.0000000 84.217600 49.639566 23.297225 66.564052
67 100.00000 0.0000000 100.00000 56.197395 25.192095 103.57126
68 100.00000 100.00000 100.00000 93.770570 99.981360 112.64160
69 0.0000000 4.4910000 0.0000000 0.1063379 0.1302836 0.1172460
70 0.0000000 6.0976000 0.0000000 0.1309446 0.1782366 0.1310947
71 0.0000000 7.7640000 0.0000000 0.1909723 0.2952306 0.1608153
72 0.0000000 9.4937000 0.0000000 0.2478379 0.4074276 0.1831246
73 0.0000000 11.290300 0.0000000 0.3427021 0.5947577 0.2134332
74 0.0000000 13.157900 0.0000000 0.4737064 0.8551107 0.2476111
75 0.0000000 15.100700 0.0000000 0.6018081 1.1106448 0.2771780
76 0.0000000 17.123300 0.0000000 0.7898828 1.4853328 0.3182541
77 0.0000000 19.230800 0.0000000 1.0225466 1.9489269 0.3689744
78 0.0000000 21.428600 0.0000000 1.2650406 2.4325230 0.4216437
79 0.0000000 23.722600 0.0000000 1.5620679 3.0255621 0.4862935
80 0.0000000 26.119400 0.0000000 1.9059478 3.7102013 0.5595098
81 0.0000000 28.625900 0.0000000 2.2904842 4.4786534 0.6432669
82 0.0000000 31.250000 0.0000000 2.7464984 5.3884316 0.7404382
83 0.0000000 34.000000 0.0000000 3.2717285 6.4365048 0.8545635
84 0.0000000 36.885200 0.0000000 3.8588477 7.6482770 0.9862547
85 0.0000000 39.916000 0.0000000 4.5782828 8.9857543 1.1290828
86 0.0000000 43.103500 0.0000000 5.3332661 10.537013 1.2964560
87 0.0000000 46.460200 0.0000000 6.2086573 12.335083 1.4918841
88 0.0000000 50.000000 0.0000000 7.2291776 14.361183 1.7107132
89 0.0000000 53.738300 0.0000000 8.4981989 16.826864 1.9777574
90 0.0000000 57.692300 0.0000000 10.033470 19.910644 2.3106685
91 0.0000000 61.881200 0.0000000 11.792071 23.452755 2.6943877
92 0.0000000 66.326500 0.0000000 13.936221 27.716496 3.1557009
93 0.0000000 71.052600 0.0000000 16.346772 32.598337 3.6836121
94 0.0000000 76.087000 0.0000000 19.245773 38.413338 4.3117954
95 0.0000000 81.460700 0.0000000 22.651313 45.196779 5.0484637
96 0.0000000 87.209300 0.0000000 26.709294 53.319961 5.9317440
97 24.859300 100.00000 51.238100 42.616637 76.736935 28.470638
98 28.432700 100.00000 73.999400 48.149747 78.483926 56.335357
99 41.327100 100.00000 83.665200 54.015367 80.920016 72.932217
100 23.019800 85.296900 100.00000 45.612843 57.793822 109.07229
101 48.937000 91.404400 100.00000 56.029465 69.751454 110.13549
102 46.973600 100.00000 100.00000 62.656837 84.041877 111.75690
103 60.891900 33.356000 100.00000 33.658907 18.454114 104.33855
104 68.168900 47.147100 100.00000 40.760432 27.172956 105.12737
105 76.060100 68.537300 100.00000 53.998119 47.111030 106.73598
106 0.0000000 0.0000000 13.157900 0.2572256 0.1449246 1.0561894
107 0.0000000 0.0000000 15.100700 0.3114009 0.1614196 1.3529277
108 0.0000000 0.0000000 17.123300 0.3993539 0.1879346 1.8411779
109 0.0000000 0.0000000 19.230800 0.4986945 0.2178446 2.3972352
110 0.0000000 0.0000000 21.428600 0.6123530 0.2527386 3.0346667
111 0.0000000 0.0000000 23.722600 0.7476693 0.2938556 3.7964869
112 0.0000000 0.0000000 26.119400 0.9033462 0.3409566 4.6796420
113 0.0000000 0.0000000 28.625900 1.0912930 0.3984816 5.7476812
114 0.0000000 0.0000000 31.250000 1.2881028 0.4583006 6.8676380
115 0.0000000 0.0000000 34.000000 1.5257323 0.5305936 8.2185742
116 0.0000000 0.0000000 36.885200 1.8001017 0.6141137 9.7821263
117 0.0000000 0.0000000 39.916000 2.1194432 0.7114827 11.599325
118 0.0000000 0.0000000 43.103500 2.4752860 0.8199497 13.617146
119 0.0000000 0.0000000 46.460200 2.8868794 0.9447647 15.954899
120 0.0000000 0.0000000 50.000000 3.3721579 1.0906237 18.696754
121 0.0000000 0.0000000 53.738300 3.9498253 1.2677518 21.974262
122 0.0000000 0.0000000 57.692300 4.6382752 1.4765968 25.869204
123 0.0000000 0.0000000 61.881200 5.4832667 1.7328029 30.647432
124 0.0000000 0.0000000 66.326500 6.4817312 2.0378839 36.309367
125 0.0000000 0.0000000 71.052600 7.6713773 2.3963630 43.031757
126 0.0000000 0.0000000 76.087000 9.0971450 2.8234881 51.080261
127 0.0000000 0.0000000 81.460700 10.692157 3.3042402 60.101460
128 0.0000000 0.0000000 87.209300 12.691359 3.9034713 71.421910
129 0.0000000 0.0000000 93.373500 15.132779 4.6257064 85.218052
130 0.0000000 88.908600 100.00000 46.569124 62.252883 109.14139
131 0.0000000 100.00000 100.00000 55.355167 80.160706 111.08650
132 26.753700 100.00000 100.00000 57.743207 81.485136 111.67720
133 1.4451000 0.0000000 0.0000000 0.0895967 0.0944724 0.1055368
134 2.9412000 0.0000000 0.0000000 0.0921829 0.0955947 0.1058290
135 2.4366000 2.4366000 2.4366000 0.0956015 0.1011516 0.1150902
136 2.9412000 2.9412000 2.9412000 0.0988702 0.1049946 0.1195478
137 3.4517000 3.4517000 3.4517000 0.1053061 0.1117546 0.1285168
138 3.9683000 3.9683000 3.9683000 0.1148433 0.1215286 0.1408942
139 4.4910000 4.4910000 4.4910000 0.1349201 0.1448106 0.1653629
140 5.0201000 5.0201000 5.0201000 0.1625509 0.1723716 0.2025463
141 5.5556000 5.5556000 5.5556000 0.1691436 0.1791516 0.2110311
142 6.0976000 6.0976000 6.0976000 0.1952946 0.2092296 0.2424553
143 6.6462000 6.6462000 6.6462000 0.2256045 0.2377676 0.2835782
144 7.2016000 7.2016000 7.2016000 0.2757823 0.2959886 0.3404697
145 7.7640000 7.7640000 7.7640000 0.3444988 0.3661226 0.4271243
146 8.3333000 8.3333000 8.3333000 0.4072885 0.4295386 0.4977787
147 8.9099000 8.9099000 8.9099000 0.4382212 0.4615706 0.5424850
148 9.4937000 9.4937000 9.4937000 0.4866200 0.5180386 0.5946435
149 10.084900 10.084900 10.084900 0.6045487 0.6484427 0.7276924
150 10.683800 10.683800 10.683800 0.6963843 0.7339247 0.8401663
151 11.290300 11.290300 11.290300 0.7319573 0.7800477 0.8740014
152 11.904800 11.904800 11.904800 0.8667042 0.9175957 1.0356249
153 12.527200 12.527200 12.527200 0.9353961 0.9922867 1.1097303
154 13.157900 13.157900 13.157900 1.0612714 1.1417308 1.2375387
155 13.796900 13.796900 13.796900 1.2133440 1.2929998 1.4181780
156 14.444400 14.444400 14.444400 1.2929065 1.3712478 1.5146343
157 15.100700 15.100700 15.100700 1.3907156 1.4929278 1.6044568
158 15.765800 15.765800 15.765800 1.5341822 1.6367059 1.7777112
159 16.439900 16.439900 16.439900 1.6824906 1.7900249 1.9484167
160 17.123300 17.123300 17.123300 1.8788524 2.0154299 2.1523808
161 17.816100 17.816100 17.816100 2.1056951 2.2562990 2.4018528
162 18.518500 18.518500 18.518500 2.3065794 2.4631130 2.6373778
163 19.230800 19.230800 19.230800 2.4846528 2.6435460 2.8475962
164 19.953100 19.953100 19.953100 2.6922430 2.8695351 3.0753119
165 20.685600 20.685600 20.685600 2.9077018 3.1014881 3.3046831
166 21.428600 21.428600 21.428600 3.1444184 3.3646082 3.5640363
167 22.182200 22.182200 22.182200 3.3744957 3.6144192 3.8164953
168 22.946900 22.946900 22.946900 3.6282910 3.8900913 4.0957115
169 23.722600 23.722600 23.722600 3.9060452 4.1863513 4.4067152
170 24.509800 24.509800 24.509800 4.1711993 4.4725024 4.7011440
171 25.308600 25.308600 25.308600 4.4834084 4.8033735 5.0520042
172 26.119400 26.119400 26.119400 4.7990145 5.1361515 5.4099729
173 26.942400 26.942400 26.942400 5.1133026 5.4652576 5.7695014
174 27.777800 27.777800 27.777800 5.4810046 5.8493277 6.1944287
175 28.625900 28.625900 28.625900 5.8636557 6.2411787 6.6275989
176 29.487200 29.487200 29.487200 6.1656518 6.5961848 6.9804561
177 30.361800 30.361800 30.361800 6.5616229 7.0354399 7.4038833
178 31.250000 31.250000 31.250000 7.0089640 7.4950170 7.8936055
179 32.152200 32.152200 32.152200 7.4391570 7.9227731 8.4009965
180 33.068800 33.068800 33.068800 7.8790562 8.4310542 8.8665287
181 34.000000 34.000000 34.000000 8.3576252 8.9236443 9.4100948
182 34.946200 34.946200 34.946200 8.8623513 9.4517954 10.000343
183 35.907900 35.907900 35.907900 9.3710514 10.014752 10.531613
184 36.885200 36.885200 36.885200 9.9558536 10.649643 11.269543
185 37.878800 37.878800 37.878800 10.461474 11.212503 11.786133
186 38.888900 38.888900 38.888900 11.136264 11.880583 12.552103
187 39.916000 39.916000 39.916000 11.702384 12.514813 13.201323
188 40.960500 40.960500 40.960500 12.331544 13.200963 13.872204
189 42.022800 42.022800 42.022800 13.033564 13.904653 14.689904
190 43.103500 43.103500 43.103500 13.635374 14.574803 15.430794
191 44.202900 44.202900 44.202900 14.410344 15.419664 16.284344
192 45.321600 45.321600 45.321600 15.157635 16.228904 17.083884
193 46.460200 46.460200 46.460200 15.974435 17.109864 18.058714
194 47.619100 47.619100 47.619100 16.815805 18.006714 18.950335
195 48.798800 48.798800 48.798800 17.675695 18.904204 19.930095
196 50.000000 50.000000 50.000000 18.578205 19.926754 21.001575
197 51.223200 51.223200 51.223200 19.624895 20.999415 22.158915
198 52.469100 52.469100 52.469100 20.716226 22.162535 23.495425
199 53.738300 53.738300 53.738300 21.874816 23.323405 24.829635
200 55.031400 55.031400 55.031400 23.013636 24.626835 26.080726
201 56.349200 56.349200 56.349200 24.231346 25.948016 27.507306
202 57.692300 57.692300 57.692300 25.644747 27.390386 29.109306
203 59.061500 59.061500 59.061500 27.021857 28.940086 30.627437
204 60.457500 60.457500 60.457500 28.556787 30.525276 32.496617
205 61.881200 61.881200 61.881200 30.199598 32.267887 34.367787
206 63.333300 63.333300 63.333300 31.738108 34.011497 36.064827
207 64.814800 64.814800 64.814800 33.637738 36.001018 38.291218
208 66.326500 66.326500 66.326500 35.485829 37.919428 40.427948
209 67.869400 67.869400 67.869400 37.504959 40.086368 42.834009
210 69.444400 69.444400 69.444400 39.633989 42.376119 45.329489
211 71.052600 71.052600 71.052600 41.779500 44.701109 47.825619
212 72.695000 72.695000 72.695000 44.016390 47.148290 50.323000
213 74.372800 74.372800 74.372800 46.418701 49.720170 53.174230
214 76.087000 76.087000 76.087000 49.035191 52.413881 56.288911
215 77.838800 77.838800 77.838800 51.679392 55.390451 59.235121
216 79.629600 79.629600 79.629600 54.564302 58.351052 62.882572
217 81.460700 81.460700 81.460700 57.551063 61.572893 66.269743
218 83.333300 83.333300 83.333300 60.675844 64.972783 69.924703
219 85.249000 85.249000 85.249000 64.059434 68.584974 74.022234
220 87.209300 87.209300 87.209300 67.536395 72.284745 78.208395
221 89.215700 89.215700 89.215700 71.165876 76.232405 82.575645
222 91.269800 91.269800 91.269800 75.226456 80.497696 87.649646
223 93.373500 93.373500 93.373500 79.527317 84.974637 93.077977
224 80.646500 29.731100 0.0000000 25.460919 16.783724 0.6437341
225 100.00000 52.585400 16.137000 46.338935 36.111158 3.5132295
226 73.122000 69.460900 0.0000000 33.920640 40.491088 3.4668639
227 100.00000 77.707000 0.0000000 58.059703 60.114092 4.4839697
228 100.00000 100.00000 0.0000000 75.107759 94.407659 8.2762708
229 100.00000 100.00000 50.911800 78.743419 95.564399 29.081560
230 53.757000 0.0000000 100.00000 27.071727 10.092012 103.28452
231 69.906900 0.0000000 100.00000 34.680370 13.995903 103.71074
232 86.894000 21.011100 100.00000 46.991895 22.251425 104.13946
233 100.00000 23.306300 100.00000 57.854378 28.380436 103.83047
234 100.00000 40.805200 100.00000 61.237552 35.291467 104.67428
235 0.0000000 71.626200 85.253300 29.044670 37.778458 71.116533
236 0.0000000 73.361600 100.00000 36.589280 41.991219 107.29168
237 50.862300 78.937700 100.00000 47.994501 52.823221 108.19439
238 0.0000000 43.172000 61.689900 10.978275 12.710293 31.708151
239 39.974000 57.796900 62.528400 20.951507 24.885695 34.477133
240 47.087400 78.725300 67.096500 34.915412 48.060860 42.825001
241 100.00000 84.191800 100.00000 81.290845 75.257665 109.24879
242 0.0000000 0.0000000 1.4451000 0.0876008 0.0931760 0.1076765
243 0.0000000 0.0000000 2.9412000 0.0889187 0.0936984 0.1148759
244 0.0000000 0.0000000 4.4910000 0.0957659 0.0960066 0.1513841
245 0.0000000 0.0000000 6.0976000 0.1047387 0.0985998 0.2030055
246 0.0000000 23.075200 11.832800 1.6567102 2.9837981 1.2505660
247 14.935700 27.427100 0.0000000 2.6343478 4.3919944 0.6027107
248 26.014900 35.130700 0.0000000 5.4353192 7.8994271 0.8984190
249 36.716100 64.112300 0.0000000 16.905110 27.634906 2.9058721
250 39.724500 76.788800 0.0000000 24.572642 41.854759 4.3979886
251 54.924000 100.00000 21.755100 47.544097 79.920506 11.553479
252 48.736900 100.00000 0.0000000 44.749357 78.607966 8.3028751
253 61.429300 100.00000 55.654500 54.151127 82.687177 32.961788
254 63.400000 100.00000 69.177800 57.991598 84.010497 49.556578
255 49.691500 40.528600 29.920200 13.564424 13.861813 7.6918364
256 62.976400 78.161700 34.452800 35.413402 48.762800 13.528116
257 73.951600 100.00000 35.492500 57.891948 84.980427 17.788149
258 0.0000000 25.046100 56.471100 6.2044675 4.9079635 25.202214
259 0.0000000 27.945000 69.363100 9.5007353 6.6895988 41.209692
260 0.0000000 46.819100 73.463000 14.861314 15.622284 48.091207
261 84.499600 47.757300 83.227300 43.896673 30.457136 65.863559
262 85.412200 0.0000000 67.719100 33.149443 15.758074 39.443242
263 84.959600 0.0000000 82.211500 36.860463 16.798014 62.505474
264 0.0000000 0.0000000 100.00000 18.398390 5.5700496 103.57967
265 22.057900 0.0000000 100.00000 19.648501 6.2257457 103.29679
266 24.301100 28.265200 100.00000 22.387413 11.150463 103.82553
267 43.467200 63.672800 100.00000 37.245727 34.786487 106.13117
268 53.899400 72.231500 100.00000 45.148310 45.420109 107.49338
269 82.820600 90.181200 100.00000 72.245716 76.984376 109.59789
270 100.00000 92.341100 100.00000 87.123928 87.091767 110.27580
271 0.0000000 0.0000000 9.4937000 0.1540732 0.1135996 0.4865608
272 18.504300 0.0000000 16.353100 1.2436902 0.6306537 1.7473214
273 28.384900 0.0000000 20.160100 2.8272888 1.4101798 2.8703160
274 34.102800 47.794700 22.978800 10.848447 15.402244 5.2325755
275 44.153400 70.231700 43.460800 24.747750 36.264938 17.944843
276 0.0000000 86.746800 36.693900 28.281584 53.625641 15.514596
277 0.0000000 100.00000 53.582300 41.040647 75.893045 30.038178
278 0.0000000 100.00000 67.538800 43.952657 76.848595 46.294967
279 64.250400 100.00000 93.556400 66.353348 86.619517 94.073497
280 0.0000000 26.265400 50.294500 5.3352457 4.9563485 19.290443
281 23.531000 42.810500 53.606300 10.965205 12.864753 23.467206
282 64.916700 72.407200 61.212300 36.863390 43.737599 34.630601
283 0.0000000 31.435900 21.572800 3.4161573 5.8209877 3.7934197
284 0.0000000 100.00000 21.158500 37.785287 75.020775 11.269319
285 28.195300 100.00000 36.127800 41.303337 76.412485 18.001958
286 31.196000 0.0000000 88.542600 16.036723 5.5066956 74.744828
287 42.054700 18.567400 100.00000 24.748739 10.271203 104.07402
288 51.079700 44.521700 100.00000 32.521810 21.848915 104.85286
289 0.0000000 15.796300 35.112900 2.2346020 1.7405999 9.0720509
290 0.0000000 22.475200 40.382900 3.5542154 3.4713222 12.265297
291 49.080600 40.416500 66.331000 18.871852 15.547904 38.206482
292 65.050700 50.214400 66.852700 28.188124 24.345825 39.547931
293 0.9579000 0.9579000 0.9579000 0.0890451 0.0951015 0.1073541
294 23.674700 46.670200 0.0000000 7.8806333 13.337123 1.5077683
295 47.904600 55.779900 0.0000000 16.277148 22.030095 2.1307000
296 70.485800 58.198900 0.0000000 27.006117 29.047996 2.3237776
297 76.613100 77.253900 94.246600 56.369352 56.118091 91.992499
298 95.528500 95.528500 95.528500 83.929388 89.715788 98.587318
299 0.0000000 42.660600 100.00000 23.944370 16.675414 104.76765
300 0.0000000 58.499400 100.00000 29.195745 27.174346 105.58897
301 30.273000 70.997600 100.00000 37.987939 40.693998 106.93538
302 50.422400 0.0000000 35.908300 9.3471310 4.5335524 9.7432925
303 63.178900 0.0000000 37.977900 14.778141 7.2949840 11.068668
304 72.780000 27.914300 43.723100 23.003348 14.659213 15.273094
305 100.00000 38.203300 54.517100 46.490732 29.584276 25.137268
306 33.309600 11.967000 0.0000000 3.6398797 2.3850830 0.2283921
307 44.667200 13.552100 0.0000000 6.5158143 4.0516183 0.2483486
308 55.750100 38.301100 41.684700 16.433632 14.378583 14.241674
309 64.429500 47.619500 48.589900 23.644794 21.570485 19.819956
310 93.373500 0.0000000 0.0000000 32.412955 16.876224 0.1174791
311 100.00000 0.0000000 22.027400 38.517876 19.920404 3.6230523
312 100.00000 0.0000000 40.575500 40.365616 20.516135 13.090559
313 100.00000 21.091500 41.508900 41.500598 22.847615 13.967450
314 100.00000 0.0000000 0.0000000 37.889586 19.722474 0.1216194
315 100.00000 0.0000000 13.711600 38.237546 19.855794 1.3585396
316 100.00000 0.0000000 60.815000 43.469896 21.432365 31.149262
317 100.00000 34.998500 62.953100 47.358371 28.627906 34.291455
318 100.00000 70.040800 65.701700 60.594720 53.946511 40.607733
319 100.00000 70.641100 89.667700 68.188661 57.004612 81.253360
320 100.00000 91.673300 91.770200 82.686907 84.802267 88.768027
321 87.209300 0.0000000 0.0000000 27.543225 14.343013 0.1217539
322 100.00000 33.926300 0.0000000 41.126931 26.054156 0.8014537
323 100.00000 38.353700 15.128200 42.342372 28.219626 2.4799054
324 100.00000 37.216000 25.146600 42.793582 27.981586 5.6928405
325 100.00000 37.717100 35.206900 43.751892 28.502586 10.650383
326 0.0000000 0.0000000 7.7640000 0.1324675 0.1069326 0.3612319
327 0.0000000 14.709400 26.156700 1.4078325 1.3376208 4.8817621
328 0.0000000 17.778700 45.619000 3.6253043 2.5597620 15.646555
329 0.0000000 18.221500 57.294700 5.4682877 3.2027372 25.775811
330 0.0000000 71.847600 64.753100 23.253401 36.146848 38.063188
331 52.475500 100.00000 75.717600 55.169357 82.215787 59.311737
332 71.758700 100.00000 81.501100 65.924768 87.349328 69.340928
333 72.493700 47.272200 0.0000000 24.416924 22.125575 1.5091386
334 72.370100 65.619600 41.306300 34.094249 37.608438 16.183894
335 88.561300 100.00000 60.727200 71.442729 91.350388 38.813419
336 100.00000 100.00000 64.058200 81.234759 96.294229 43.282730
337 18.731500 13.760400 0.0000000 1.4481221 1.4433598 0.2608598
338 20.285400 18.762300 0.0000000 2.0820944 2.4285890 0.3564064
339 56.954700 34.546400 0.0000000 13.659302 11.990643 0.8609842
340 68.856000 40.124800 19.911800 21.107402 17.796264 3.8730586
341 0.0000000 9.3330000 17.830200 0.5925990 0.5074986 2.1335644
342 0.0000000 17.552800 17.934700 1.2270912 1.7599209 2.3359091
343 0.0000000 21.339700 15.860500 1.5566879 2.5825810 1.8761952
344 0.0000000 25.842100 27.983300 2.8976271 4.0747013 5.9627376
345 0.0000000 55.788500 33.651800 10.957209 19.329394 10.228090
346 0.0000000 74.816600 59.283800 23.777542 39.185868 31.761800
347 0.0000000 100.00000 89.825800 50.863467 78.908236 85.273256
348 30.179600 23.760800 0.0000000 4.2212900 4.4234204 0.4827518
349 42.080200 28.371300 0.0000000 7.6194825 7.2072329 0.6274683
350 100.00000 46.434100 0.0000000 44.078214 31.972147 1.4426884
351 100.00000 67.575900 0.0000000 52.499160 48.709580 3.2441045
352 100.00000 75.010200 33.462700 58.317532 57.845482 12.850087
353 100.00000 85.920500 44.002600 66.523065 72.427675 21.104578
354 100.00000 100.00000 84.662100 87.057120 98.024140 75.830780
355 0.0000000 50.093100 54.848600 11.630257 16.256454 24.694780
356 0.0000000 59.014800 55.051600 15.009739 22.900345 25.616845
357 0.0000000 63.572200 66.728600 19.399589 27.656696 39.640323
358 0.0000000 0.0000000 0.0000000 0.0870418 0.0928157 0.1045977
359 0.4762000 0.4762000 0.4762000 0.0872479 0.0931094 0.1048601
360 28.431100 29.104600 16.564400 5.1037920 6.1074777 2.3296388
361 29.138700 55.208300 45.125800 14.524058 20.639195 17.547747
362 100.00000 62.396800 45.029200 52.908028 44.964749 18.801134
363 100.00000 82.258300 59.718600 66.568254 68.187364 34.857206
364 100.00000 91.264500 71.128700 75.893457 82.172207 51.524658
365 25.470300 0.0000000 37.557600 3.7320992 1.5834698 10.663429
366 43.535200 0.0000000 40.614500 7.8597432 3.6527032 12.608086
367 100.00000 0.0000000 70.874100 45.740546 22.098095 44.444637
368 100.00000 17.293200 78.626500 48.710177 24.340015 56.916536
369 100.00000 54.963800 79.215900 57.311506 41.247539 59.713856
370 68.682100 19.061500 32.960300 18.237405 10.616993 8.4065340
371 79.098100 31.157700 57.457100 29.534729 18.474964 27.295351
372 0.0000000 0.0000000 11.290300 0.2002246 0.1276306 0.7425371
373 12.549500 0.0000000 19.877100 0.8897880 0.4084876 2.7418896
374 14.685200 0.0000000 27.457300 1.5060735 0.6266997 5.4194363
375 35.604100 9.7991000 35.555300 5.6474805 2.8940641 9.5226549
376 1.4451000 1.4451000 1.4451000 0.0903694 0.0964497 0.1090742
377 1.9380000 1.9380000 1.9380000 0.0923147 0.0982118 0.1118797
378 36.882900 0.0000000 18.760000 4.4456433 2.2655350 2.4849212
379 55.985100 0.0000000 19.589500 10.122382 5.2020075 2.7426700
380 71.819600 0.0000000 24.557800 18.098063 9.2803373 4.4485619
381 71.247900 0.0000000 62.329200 22.701341 10.613943 32.190096
382 0.0000000 63.989600 29.142200 14.081411 26.256116 8.8109215
383 0.0000000 75.986300 40.114200 21.526152 39.507148 15.888654
384 0.0000000 93.373500 0.0000000 31.499516 63.109933 6.9917274
385 0.0000000 100.00000 0.0000000 37.062437 74.445735 8.2808209
386 85.009100 100.00000 0.0000000 63.415658 88.331768 8.2705196
387 87.549400 100.00000 22.542800 65.923208 89.589598 11.923090
388 100.00000 100.00000 36.066000 76.921059 95.024919 18.472830
389 67.314000 100.00000 0.0000000 52.678838 82.821867 8.2984473
390 77.612800 100.00000 100.00000 76.867338 91.192278 111.81270
391 90.079000 100.00000 100.00000 85.684979 95.930949 112.05190
392 97.736600 97.736600 97.736600 88.555089 94.626809 104.92040
393 49.092900 0.0000000 63.184700 13.079698 5.5793096 33.201581
394 57.904600 0.0000000 75.391400 19.440169 8.2002701 50.797953
395 28.519100 15.438900 29.108300 4.0687942 2.7560701 6.3668878
396 30.481600 26.778600 31.692400 6.0954445 5.8880337 7.8715427
397 35.282500 30.907200 73.973300 15.094977 10.118083 48.878633
398 39.032600 32.974100 92.143200 22.577876 13.327983 83.458796
399 0.0000000 13.608600 72.103400 8.4565724 3.4092242 44.870985
400 0.0000000 15.450900 100.00000 19.025804 6.7541048 103.61659
401 0.0000000 25.232100 100.00000 20.268831 9.2708303 103.84212
402 0.0000000 34.334100 100.00000 22.013006 12.676793 104.43703
403 28.014200 47.232000 100.00000 27.514441 20.405455 104.70936
404 63.436800 12.223400 34.386700 15.039573 7.9997731 9.0046608
405 65.153800 24.253800 61.875700 21.218716 12.270923 31.937090
406 100.00000 63.288000 77.499100 60.359778 48.191170 57.711719
407 51.755000 53.074600 33.492900 18.283967 21.686435 10.280441
408 64.216500 65.357400 37.190500 29.142379 34.951137 13.546464
409 81.818400 68.202700 40.948300 41.228629 43.320039 16.277235
410 17.076600 8.9734000 0.0000000 0.9590280 0.7473357 0.1913959
411 20.550900 12.294400 8.9009000 1.6039169 1.3421708 0.5669749
412 24.084500 19.697000 17.372900 3.0713498 3.0639151 2.3129811
413 23.405800 33.218600 48.281000 7.9616137 8.1919271 18.582021
414 30.231000 48.389600 63.552300 15.602505 17.167184 34.854896
415 54.368900 59.855600 70.049800 28.030217 29.527916 44.896303
416 0.0000000 31.551600 14.531400 3.0897440 5.7216786 1.9385454
417 0.0000000 41.218500 14.211600 5.2215187 9.9506965 2.4082306
418 76.114500 83.570600 21.237600 45.073663 59.275392 8.5268080
419 87.164300 83.787300 27.936500 53.191314 63.642563 11.190368
420 46.779600 38.937400 0.0000000 11.043664 12.047383 1.0725258
421 87.244000 40.651600 0.0000000 32.367632 23.723275 1.1251732
422 100.00000 57.440900 0.0000000 47.688997 39.333548 2.2382324
423 100.00000 76.503300 20.152800 58.144772 59.310362 7.2725582
424 0.0000000 75.128000 23.014000 19.575232 38.032728 7.7617151
425 16.914900 81.939800 72.616000 32.196163 49.461150 51.039051
426 0.0000000 45.870700 43.733200 8.7681463 13.238453 15.478292
427 0.0000000 48.322900 60.735200 12.229596 15.506794 30.920066
428 0.0000000 50.496600 100.00000 26.240323 21.240645 104.95606
429 0.0000000 11.864600 59.760800 5.4099496 2.2654570 28.371110
430 0.0000000 20.896300 70.334900 8.7118473 4.7237555 42.341336
431 41.545400 23.168100 71.593700 14.707514 8.1815331 45.016078
432 24.221800 6.7823000 31.568400 3.0572652 1.4499698 7.3801252
433 32.460100 8.2930000 40.435200 5.4511373 2.6023180 12.437795
434 100.00000 0.0000000 30.871300 39.324156 20.193984 7.4829045
435 100.00000 20.737300 31.720800 40.467758 22.447145 8.2008528
436 42.407800 28.937000 11.849600 7.9883386 7.5936860 1.4620804
437 42.684300 51.216000 12.740000 13.521877 18.429524 2.7125378
438 41.543300 60.801200 18.957800 17.209809 25.782646 5.0309154
439 23.664200 55.931900 36.793000 12.962739 20.460725 12.232240
440 26.906400 63.682300 47.401700 18.121810 27.806446 20.007419
441 27.990300 73.517600 47.091300 23.391221 38.198988 20.823102
442 37.303200 83.698800 56.519900 33.333893 52.590931 30.749134
443 52.959900 84.769000 63.827100 40.089663 56.925982 39.362234
444 0.0000000 19.775300 25.232500 1.8767240 2.3712780 4.6671410
445 0.0000000 21.167100 32.473700 2.5884285 2.8743521 7.7698044
446 0.0000000 39.865800 84.584700 16.545290 13.103933 67.263763
447 0.0000000 57.474500 85.985300 22.540366 24.267655 71.182092
448 0.0000000 65.415700 85.656100 25.991558 31.381927 71.232658
449 16.206000 14.581600 21.258300 1.7472007 1.5575848 3.3200936
450 22.325100 17.681000 26.817500 3.1710115 2.6804421 5.4210890
451 25.881900 54.558400 28.852400 11.986339 19.270814 8.0276438
452 16.214800 38.451900 0.0000000 4.8823891 8.7089832 1.0613049
453 24.258000 40.955600 10.033100 6.6906734 10.608463 1.7135522
454 23.890300 41.820000 18.163000 7.1755063 11.188953 3.4169656
455 30.973800 49.129200 43.330800 12.611017 16.642454 15.936545
456 65.015600 83.246800 51.413300 41.886093 56.712922 25.928685
457 75.767500 87.977300 51.847200 51.282745 66.563033 27.125177
458 56.098700 85.791800 0.0000000 35.737094 56.576842 5.6871313
459 71.870800 89.608200 0.0000000 46.332805 66.307503 6.2969927
460 73.429000 100.00000 19.412100 56.555858 84.729377 10.869999
461 100.00000 100.00000 20.606500 75.586299 94.608849 11.343180
462 28.143500 38.397700 31.722700 7.9623074 10.230923 8.3652837
463 36.180500 44.764600 39.722500 12.036306 14.567313 13.329885
464 37.936100 55.404900 55.652500 18.157927 22.334895 26.632014
465 55.356400 63.098200 61.405000 27.799218 31.885897 33.830677
466 100.00000 20.787700 0.0000000 39.069888 21.971255 0.3620045
467 100.00000 21.400000 13.637100 39.375828 22.228975 1.5941995
468 100.00000 74.565200 84.548400 68.549602 60.822582 71.525042
469 100.00000 74.786000 100.00000 75.185462 63.275833 107.51929
470 41.653200 11.045800 83.185000 16.883187 6.7354008 64.281133
471 57.552100 11.808700 83.813100 22.410910 9.6489694 65.622641
472 67.638800 36.970900 90.648000 33.420819 20.386695 80.253874
473 16.778500 20.180400 28.316400 2.8633095 2.9091921 6.0871626
474 32.558000 40.045500 28.543400 8.9678884 11.359693 7.0368682
475 40.765600 41.794800 33.615900 11.713815 13.343683 9.5348924
476 21.200300 0.0000000 78.332100 11.053780 3.6708972 55.323551
477 30.210400 11.480200 80.645300 13.543036 5.2302876 59.546847
478 34.918900 28.856400 81.410800 16.924496 10.057892 61.466135
479 23.829900 61.625600 74.159400 22.220388 27.427456 50.928410
480 29.010200 74.601700 75.709600 30.344791 41.600899 55.059597
481 57.525600 16.004600 0.0000000 11.078285 6.6590408 0.2760491
482 71.406500 17.610500 0.0000000 18.127115 10.579793 0.3019903
483 86.548300 19.655200 0.0000000 28.111017 16.087534 0.3335101
484 87.096200 84.778900 100.00000 71.405064 70.722344 109.10759
485 0.0000000 14.804500 85.438700 12.684885 4.7929145 68.310437
486 0.0000000 23.245100 85.494700 13.680141 6.7533408 68.523220
487 74.363400 0.0000000 86.927800 31.584391 13.708083 71.735603
488 85.446900 0.0000000 100.00000 44.620073 19.168654 103.81295
489 13.671500 46.785500 90.201500 20.970032 17.657644 79.554889
490 25.805100 55.336900 100.00000 29.834824 25.633016 105.12617
491 24.360000 63.403200 100.00000 33.166907 32.498997 106.32067
492 0.0000000 30.763400 83.913000 14.352266 9.0775443 65.656688
493 27.984300 38.370700 100.00000 25.214208 15.705784 104.56725
494 87.608200 64.154000 100.00000 59.593668 46.790510 105.88608
495 100.00000 64.553800 100.00000 69.706339 52.277541 106.37409
496 59.191700 0.0000000 47.931100 14.197341 6.7417538 17.880467
497 0.0000000 11.889800 10.783500 0.5085317 0.7538327 0.8027064
498 10.433800 13.003300 21.977500 1.2894192 1.1525178 3.4996453
499 22.642500 56.797900 58.276200 16.217968 22.026745 29.410003
500 30.486400 72.885200 82.576500 31.764500 40.412688 66.720145
501 55.701000 81.142300 82.290300 43.797442 54.158291 67.436340
502 37.685300 20.485500 17.265700 5.7871405 4.6109474 2.3648493
503 42.835900 23.409600 30.953800 8.3364933 6.3168488 7.4284977
504 42.086100 29.151600 30.048900 9.0163139 8.0123081 7.2685242
505 42.946800 37.091400 34.506500 11.234563 11.431773 9.8476324
506 26.202100 100.00000 0.0000000 39.205017 75.640715 8.2906720
507 32.090500 100.00000 21.267600 40.925017 76.486755 11.377759
508 54.102600 100.00000 38.258900 48.615807 80.193356 19.437839
509 87.129300 100.00000 43.773400 67.625678 89.994718 23.156639
510 37.337000 43.662700 0.0000000 9.6661553 13.045353 1.3238375
511 54.119100 50.027600 0.0000000 16.423386 19.214394 1.6890411
512 57.930300 65.106800 46.780000 27.291639 33.604157 19.902641
513 80.095200 72.969900 53.543300 44.520801 48.499250 26.687184
514 90.298900 80.176700 56.215000 56.646313 61.193592 30.372366
515 43.189200 48.530200 23.024600 13.348676 17.042044 5.3268230
516 51.726800 50.644500 74.868300 24.900474 22.446295 51.436575
517 32.470200 25.297700 43.471300 7.5075351 6.0337817 14.811718
518 41.423500 26.093200 50.770200 10.708078 7.6798410 20.496957
519 10.985900 31.486400 39.883800 5.2405804 6.4939978 12.490083
520 21.975800 35.959100 43.911100 7.7208913 9.0522873 15.482086
521 26.836200 52.257300 49.752400 13.756057 18.537024 20.868114
522 33.436500 60.613900 55.328500 19.155618 26.044146 26.620676
523 49.386200 77.520000 74.449700 36.828412 47.579460 53.528310
524 64.170100 81.536600 78.120400 46.562033 56.246791 60.333582
525 47.245400 38.172700 14.656400 11.305944 12.058443 2.3183667
526 58.773100 48.859400 21.833700 18.695175 19.975124 4.9711862
527 67.848800 54.340900 34.451100 25.920326 26.280146 10.938682
528 81.863000 56.416500 47.647800 36.758476 32.794777 19.926981
529 41.328900 0.0000000 13.949800 5.3133828 2.7593241 1.3545728
530 52.897400 0.0000000 24.791800 9.2690020 4.6952764 4.4967021
531 57.755900 11.863000 25.411000 11.700523 6.4185308 4.8234737
532 60.289800 25.843400 46.723600 16.576017 10.771693 17.333958
533 81.186100 63.781300 56.788100 40.948288 39.421498 28.783601
534 80.901000 66.381400 64.989200 43.815029 42.493749 38.885030
535 61.585600 21.032100 10.335300 13.598877 8.8035062 0.9766252
536 78.212300 26.617800 20.488600 23.951608 15.290694 3.4805722
537 63.144900 26.086700 0.0000000 14.863758 10.452873 0.5379592
538 63.609200 60.167500 22.681100 25.161408 29.515406 6.1741615
539 73.676800 72.609400 58.084800 41.175720 46.304550 31.228692
540 79.674900 82.554000 68.710600 53.459463 61.371422 45.961664
541 82.448500 82.340700 75.792100 57.113673 62.710103 56.773644
542 0.0000000 66.882900 100.00000 33.130008 35.052207 106.37678
543 24.638100 77.171100 100.00000 40.572151 47.383040 107.36728
544 30.719200 56.493200 71.814300 20.615777 23.531455 46.922328
545 36.515800 58.719100 78.500700 24.686787 26.630986 57.959548
546 48.428600 62.807900 76.348200 29.036638 31.667287 54.723932
547 64.957600 63.977600 79.712400 37.379598 36.614728 60.824154
548 65.064800 78.367000 91.254800 49.602762 53.951071 85.281289
549 69.939200 82.530300 100.00000 58.900063 61.969053 108.35569
550 39.812100 33.335400 53.031200 11.988231 10.179243 22.755442
551 47.739400 39.563500 52.875900 15.515002 14.056293 22.955708
552 56.799200 51.099700 47.838200 21.223015 21.889995 19.509277
553 61.370900 54.868400 66.660200 28.105325 26.726066 39.718313
554 75.778700 58.136500 72.094600 38.530826 33.799197 47.949785
555 0.0000000 0.0000000 0.0000000 0.0870148 0.0927828 0.1046027
556 11.868500 14.051800 0.0000000 0.8720518 1.1812338 0.2664808
557 49.162600 23.553100 0.0000000 8.9041536 6.8156349 0.4677661
558 51.382400 70.051000 0.0000000 24.068951 35.886018 3.5544535
559 72.700100 72.370300 20.713800 36.068521 44.268319 6.8198821
560 38.402900 31.034500 8.2217000 7.2612411 7.7759190 1.0424396
561 45.718800 32.250300 23.158900 10.087982 9.4829654 4.5255089
562 67.002700 35.334600 52.706100 22.457320 16.255294 22.634681
563 78.887200 41.272300 64.594000 33.147221 23.341775 36.254671
564 45.400800 0.0000000 27.057400 7.0916323 3.5286122 5.3832478
565 67.033000 0.0000000 30.600200 15.985442 8.0856611 7.0296317
566 73.711600 20.617500 29.897800 20.980966 12.363453 6.9934091
567 78.855000 48.157800 48.363800 32.039474 26.134676 19.844289
568 10.967100 9.2992000 0.0000000 0.4821425 0.5187616 0.1880560
569 14.527600 8.9096000 42.149300 3.0652922 1.3446408 13.449682
570 23.479100 8.7644000 48.780900 4.9855592 2.1527530 18.361800
571 41.307500 7.6430000 56.433600 9.7693129 4.3082524 25.451421
572 54.388000 24.618100 67.172400 17.742675 10.303613 38.765830
573 60.760000 37.954400 67.168900 23.030360 16.795034 39.443853
574 0.0000000 10.333300 34.804700 1.8384356 1.0163047 8.7448223
575 10.869500 14.432300 42.461400 3.1912583 1.9164639 13.650607
576 18.318900 30.830900 80.949100 14.332417 9.2904303 60.424612
577 0.0000000 55.086900 72.941300 17.497737 21.105245 47.909405
578 0.0000000 87.260700 71.350000 34.749634 56.415002 49.391373
579 0.0000000 100.00000 78.035400 46.748827 77.564526 62.222876
580 21.554700 100.00000 84.641100 50.492917 79.180086 75.164796
581 21.891400 100.00000 92.612900 53.404297 79.942586 91.642026
582 100.00000 100.00000 92.710300 89.958510 98.789550 92.642120
583 0.0000000 100.00000 38.086200 38.956927 75.166945 18.730688
584 22.077400 100.00000 62.858000 44.428517 77.319376 40.790827
585 23.672100 83.986200 0.0000000 26.098664 49.708700 5.4287279
586 41.002100 89.662600 0.0000000 33.803725 59.898342 6.3273314
587 59.431900 92.303300 31.603500 43.571295 67.861964 14.186208
588 65.796000 76.099400 0.0000000 33.742612 46.074080 4.2951610
589 83.039800 80.575500 0.0000000 46.881323 57.062802 4.8858075
590 100.00000 88.274100 0.0000000 65.285856 74.684385 6.0633961
591 100.00000 88.798300 32.973800 67.521876 76.412295 14.636419
592 100.00000 90.216000 57.862800 71.981836 79.598946 34.148718
593 84.092300 61.583200 0.0000000 37.116488 36.453268 2.6239250
594 100.00000 65.060500 18.603300 51.810009 46.759430 5.4412177
595 36.735000 19.655700 0.0000000 5.1116665 4.1481233 0.3737050
596 45.463600 20.307000 9.9183000 7.4922076 5.5016366 0.8672928
597 54.652800 27.482700 10.295200 11.597199 9.1162073 1.1862677
598 74.018200 40.770600 28.162800 24.844462 19.867754 6.9686747
599 75.813900 70.942900 82.688500 48.017940 47.283170 66.930038
600 88.184200 76.191800 100.00000 66.762882 60.123142 107.98519
601 69.495800 38.183500 79.951300 31.045410 20.296074 59.449450
602 100.00000 48.639900 88.839900 58.577784 38.069978 77.761062
603 100.00000 54.124100 100.00000 65.404406 43.410339 105.84428
604 17.850800 33.814100 18.627600 4.6135987 7.1626259 3.1388292
605 21.285600 38.090100 39.782800 7.6493103 9.8208974 12.901460
606 27.821000 41.628700 46.027400 10.315035 12.282873 17.421270
607 37.073700 47.222400 54.062800 14.935705 16.682194 24.375040
608 18.781300 18.928400 60.819100 7.2827865 4.0906353 30.277014
609 23.258000 17.325000 100.00000 20.783427 7.9919831 103.79461
610 44.004200 31.750000 100.00000 27.390195 14.697693 104.25824
611 24.774300 22.725300 7.7172000 3.2459378 3.7538053 0.7172831
612 34.093600 22.899500 8.3321000 4.9699448 4.6758604 0.7821811
613 55.306500 41.719100 36.281800 16.549413 15.778354 11.132728
614 71.123200 58.778800 55.620900 32.368067 31.756257 27.081159
615 70.823400 60.582100 63.327300 34.592677 33.705487 36.092427
616 80.639800 69.611800 78.797700 49.129110 47.048260 60.045479
617 8.8638000 20.746200 12.768100 1.5124769 2.4600700 1.2882751
618 21.936900 27.395300 17.547400 3.8633757 5.0569505 2.5864141
619 25.029000 33.122900 17.492100 5.3386346 7.3317600 2.8008601
620 26.524200 16.769000 0.0000000 2.7442180 2.4249510 0.3033730
621 53.048900 20.857700 8.7961000 9.9629931 6.8837449 0.7542591
622 79.327600 21.476100 24.511200 24.195527 14.263783 4.7430235
623 100.00000 36.386500 44.630500 44.491901 28.217596 16.703661
624 100.00000 50.946700 66.749800 52.476465 37.336648 40.408488
625 15.486400 0.0000000 9.6944000 0.7106503 0.3994916 0.5649365
626 19.686600 6.6811000 9.5152000 1.2443399 0.7619997 0.5831841
627 27.240100 13.324500 18.791300 3.0481992 2.1622540 2.5940929
628 34.260300 14.793000 25.162000 4.8369193 3.1328351 4.7239800
629 62.276800 17.134100 41.139700 15.585384 8.7390392 13.161298
630 70.984300 19.972700 52.831700 22.104305 12.258523 22.381726
631 73.528200 20.792100 100.00000 38.202693 17.638524 103.84895
632 54.533500 0.0000000 87.890100 22.121557 8.6983072 73.574891
633 58.518900 19.855200 100.00000 30.538421 13.445933 104.29944
634 75.530600 36.986300 100.00000 42.279389 24.072565 104.29756
635 85.897200 51.752900 100.00000 53.186484 35.860498 104.80438
636 56.455800 0.0000000 56.920500 14.480700 6.5735048 26.046877
637 68.439100 9.4940000 78.891300 25.853081 11.556643 56.685743
638 100.00000 14.527600 90.889000 52.702556 25.056535 80.593990
639 59.145400 33.114600 36.088800 16.095120 12.670843 10.609136
640 69.701900 40.196600 43.494900 23.756302 18.782874 15.628647
641 81.395400 40.322400 45.337700 31.136682 22.636255 17.059258
642 54.165100 12.212000 17.241300 9.7974403 5.5283236 2.1424775
643 56.741200 35.045100 44.909100 16.563641 13.309753 16.409562
644 66.022900 42.199900 49.585200 23.162352 19.084504 20.378455
645 74.485400 43.206900 55.707600 29.102532 22.312225 26.043684
646 0.0000000 85.315400 19.894900 26.017844 51.255771 8.2305874
647 39.430200 93.369500 28.849900 37.496686 66.089433 12.967628
648 44.557000 100.00000 49.691200 46.941157 79.106386 27.372288
649 86.462200 100.00000 84.561600 76.638229 92.755769 75.661969
650 62.058800 0.0000000 15.350700 12.537462 6.5015288 1.5643423
651 81.333500 18.855400 42.546100 26.933576 14.886853 14.315415
652 85.552900 19.481000 89.278000 41.103765 19.952774 76.898214
653 100.00000 31.764500 88.701900 54.291310 29.705056 76.554706
654 79.641300 0.0000000 43.577000 24.770593 12.351313 14.833512
655 100.00000 22.245900 69.647300 46.871178 24.773945 43.053790
656 100.00000 38.907400 79.815000 52.709492 31.826527 59.720191
657 22.229700 23.947900 37.370400 4.8743075 4.5004184 10.896994
658 24.948600 25.922800 55.595300 8.0650812 6.0919477 24.909305
659 31.679300 31.361600 64.851900 12.126209 9.1730263 35.928829
660 18.208300 0.0000000 48.936200 4.1593282 1.5140988 18.333840
661 39.027600 0.0000000 100.00000 22.971034 7.8883031 103.90501
662 46.414500 53.946300 100.00000 34.171574 27.133806 105.63457
663 73.079700 76.248900 100.00000 56.704811 54.973041 107.39229
664 0.0000000 52.663200 18.855100 8.7472926 16.669254 4.2079269
665 29.615600 54.801700 21.353000 12.244839 19.608084 5.2130939
666 54.427600 54.883700 24.782300 19.173097 23.241635 6.4537750
667 69.963200 56.006600 26.023300 26.962746 27.893626 7.0847957
668 79.420200 57.068000 30.490400 33.413816 31.823277 9.1722246
669 85.248900 56.605200 38.984500 38.075656 33.811197 13.937283
670 86.096000 58.580900 55.324900 41.882667 36.535048 27.017591
671 100.00000 61.619700 66.727900 56.633608 45.690459 41.177611
672 100.00000 79.461600 73.819000 68.352433 65.780853 53.872745
673 100.00000 91.034900 82.421800 78.851977 82.810607 69.856197
674 100.00000 49.908700 26.170400 46.078105 34.663347 6.8529170
675 100.00000 52.668100 37.096800 48.023165 36.828038 12.707274
676 100.00000 82.968400 69.400900 69.362224 69.969024 47.538996
677 22.863300 69.129100 0.0000000 16.896071 31.448907 3.4605811
678 27.896600 74.417500 29.914200 22.084432 38.675818 10.640575
679 28.749000 73.484800 57.228200 25.179581 38.829618 30.013571
680 54.363200 75.753800 60.136800 34.021321 45.243409 33.754632
681 62.956200 84.502500 61.517000 43.699683 58.611702 36.740404
682 67.348200 88.576200 77.981100 53.149305 67.068954 61.202274
683 77.405000 92.574800 80.307600 62.732166 76.459985 65.995386
684 83.380800 100.00000 93.312600 77.524819 92.407089 93.817159
685 0.0000000 70.370600 45.830600 19.118531 33.440247 19.153642
686 0.0000000 88.164000 51.824400 31.206924 56.408342 26.196195
687 41.975600 91.920000 53.524900 39.988255 65.157173 29.225796
688 0.0000000 51.198500 40.982900 10.044478 16.320124 14.051356
689 41.019900 66.810400 53.851400 23.689080 32.759967 25.962499
690 44.847800 70.033500 62.389900 28.096710 37.275638 35.607859
691 75.954100 61.784900 15.821800 32.235018 34.298877 4.2229510
692 90.487900 62.002900 25.875200 42.981228 39.929798 7.6211404
693 100.00000 68.245900 41.030000 55.330850 50.631390 16.680246
694 60.945600 46.168600 0.0000000 18.183704 18.449014 1.4551963
695 86.074500 51.566700 0.0000000 34.550865 29.341556 1.7776110
696 100.00000 60.906700 28.721100 50.458458 43.082219 8.9211614
697 100.00000 61.274300 55.207200 53.914648 44.501119 27.531793
698 0.0000000 0.0000000 0.0000000 0.0870365 0.0928432 0.1045827
699 0.0000000 9.6361000 25.687100 1.0505715 0.6762697 4.6147888
700 9.7340000 20.521400 40.610700 3.5601698 3.0766091 12.595995
701 0.0000000 85.886400 79.433000 36.117754 55.204241 62.300731
702 0.0000000 87.371500 88.788700 40.502164 58.483462 80.559751
703 20.208600 0.0000000 63.458700 7.0579567 2.4390420 33.380961
704 35.323300 0.0000000 66.274500 10.276484 3.9583133 37.306983
705 48.419100 17.194500 69.025500 15.240141 7.5133140 41.159867
706 48.754500 36.048300 72.140800 19.287189 13.952383 46.467485
707 49.560100 42.583000 85.292400 25.133591 18.504124 69.582484
708 64.117400 87.230100 100.00000 59.304054 67.073214 109.49869
709 63.205100 100.00000 100.00000 69.053618 87.367638 111.57580
710 17.513100 9.1591000 19.280600 1.4640264 0.9302227 2.6366899
711 20.351400 15.014800 19.030100 2.1519061 1.8403569 2.6695848
712 32.341000 21.572100 21.904600 5.0159966 4.3676724 3.7420392
713 42.025000 57.398000 48.100500 18.760538 24.061615 20.162318
714 54.001000 68.777800 60.987500 30.095760 37.385078 33.869869
715 84.682900 24.383100 36.372400 29.277737 17.300454 10.569039
716 91.332500 23.736000 59.619500 37.524347 20.732565 29.695802
717 100.00000 41.685300 72.136500 51.174682 32.463657 47.513894
718 0.0000000 13.539600 18.520900 0.9175526 1.0878287 2.4336979
719 0.0000000 26.095400 23.160000 2.6015450 4.0318643 4.1382554
720 0.0000000 41.990800 30.447800 6.3785719 10.719483 7.7493179
721 37.386300 65.899700 31.043500 19.493060 30.460986 10.208944
722 49.592000 67.202800 30.430900 23.444850 33.493887 10.038015
723 59.689400 68.041500 30.084800 27.791820 36.408958 10.046255
724 71.258200 71.664700 32.099400 35.711610 43.411779 11.497116
725 70.634900 88.646500 41.019700 47.368135 65.598323 19.025617
726 73.171100 100.00000 49.788600 59.317128 85.483257 27.643149
727 22.109500 63.393400 10.480000 14.150161 25.963406 3.4757085
728 19.960400 55.163100 0.0000000 10.153060 18.563684 2.0946255
729 37.242800 54.915800 0.0000000 13.162688 19.948394 2.0650128
730 60.330900 62.482200 0.0000000 23.793969 30.177476 2.7360694
731 72.161300 79.349700 80.416500 50.176722 55.873261 63.908791
732 73.323600 100.00000 89.885300 69.815488 88.714388 85.895258
733 0.0000000 36.250400 39.799200 5.9498989 8.2957081 12.429648
734 0.0000000 38.188600 48.152700 7.3950053 9.5465134 18.249985
735 0.0000000 35.951000 62.021200 9.3661325 9.2970603 31.781072
736 0.0000000 36.096800 71.042900 11.575261 10.061312 44.191746
737 44.885400 48.332200 81.246800 23.977173 20.547025 62.094370
738 67.158800 49.595700 81.913300 33.511853 26.013566 63.660525
739 82.833800 64.335700 83.129000 49.246258 42.805209 67.280056
740 36.428200 0.0000000 27.514900 4.8859234 2.3752540 5.6027915
741 42.196000 17.021200 37.067400 8.0253574 4.8837685 10.642198
742 52.314600 22.040900 47.920300 13.000346 8.0773001 18.108871
743 100.00000 51.122700 56.172100 50.304985 36.736658 27.640360
744 69.247800 0.0000000 12.225700 16.108173 8.3807712 0.9682520
745 84.678600 0.0000000 13.063800 25.878304 13.449263 1.1282970
746 85.523300 0.0000000 29.009200 27.475374 14.074993 6.3906017
747 84.928000 0.0000000 37.481100 27.736514 14.039883 10.870797
748 100.00000 0.0000000 50.626600 41.577896 20.880895 20.562716
749 100.00000 20.689400 50.720000 42.726788 23.139225 21.046717
750 73.015500 0.0000000 52.023800 21.853682 10.586323 21.359934
751 76.718100 23.591600 72.615100 30.335946 16.294544 46.904749
752 89.602300 100.00000 74.929000 75.666299 92.765929 58.469259
753 100.00000 100.00000 74.809600 84.005129 97.094359 58.973730
754 12.836400 19.787100 0.0000000 1.4414755 2.2508160 0.3796328
755 12.730300 26.274900 26.345400 3.2328218 4.3703884 5.4306329
756 20.445000 26.064800 30.856900 4.3424789 4.8322545 7.4448365
757 42.073500 40.390600 46.604400 13.212873 13.335963 17.755811
758 57.107500 55.699800 47.459800 22.976747 25.272865 19.540649
759 100.00000 73.014200 58.144400 60.629021 56.774632 31.898505
760 71.798100 37.243700 0.0000000 21.528571 16.973644 0.9747617
761 80.963400 43.161700 18.113200 29.053863 23.020805 3.4906940
762 45.532100 9.5599000 50.689000 10.041880 4.7521585 20.118279
763 61.598300 57.592200 100.00000 41.240185 32.898907 105.69937
764 75.126600 58.187800 100.00000 48.736806 37.194368 105.69948
765 10.345400 0.0000000 12.537400 0.4513101 0.2501716 0.9436981
766 23.728500 0.0000000 12.674300 1.7647703 0.9283647 1.0393606
767 45.471200 79.862400 23.098000 28.956093 47.206610 8.5710939
768 46.967400 92.595300 39.517200 40.077485 66.335423 18.703057
769 77.186200 100.00000 63.321400 64.258328 87.470648 41.864609
770 77.850200 100.00000 74.175300 67.407348 88.515568 57.346698
771 0.0000000 74.089600 73.825100 26.923951 39.509038 51.445357
772 0.0000000 76.247600 83.239600 31.085961 42.984139 67.863396
773 0.0000000 80.949500 100.00000 41.204262 51.266371 108.02019
774 34.269200 92.960300 100.00000 53.416735 70.439114 109.89159
775 13.904400 57.065300 81.540500 21.399106 23.703455 62.993163
776 33.998300 66.331800 82.130700 28.900729 33.825517 65.228141
777 30.201900 0.0000000 10.554000 2.7465844 1.4495098 0.7486434
778 33.093800 27.452000 14.619100 5.6550356 6.0065977 1.8543050
779 22.370600 25.387600 0.0000000 3.1868876 4.2263384 0.5340153
780 28.813800 30.511400 46.130500 8.0562354 7.5331810 16.941061
781 29.926800 30.903000 53.196800 9.3559025 8.0975171 22.818436
782 29.956600 41.239500 55.190200 12.015904 12.765203 25.193455
783 0.0000000 27.270800 34.393900 3.6613364 4.6924054 9.0240428
784 0.0000000 29.674100 42.955400 4.9908306 5.8185177 14.196868
785 17.771000 41.832500 63.859100 12.087994 12.686713 34.992779
786 32.640500 32.375400 42.142900 8.6406932 8.4649892 14.244696
787 52.147900 32.206000 47.622800 14.545570 11.313703 18.261148
788 34.119800 19.151100 38.231100 6.4237541 4.3986134 11.300851
789 45.038000 30.003300 38.604700 10.821940 9.0022953 11.936550
790 44.081500 84.985500 42.169900 33.828234 54.634821 19.072996
791 18.073800 70.100500 35.994000 18.752171 33.228647 13.206423
792 39.908500 76.530700 42.046300 27.174952 42.925029 17.848624
793 86.584600 89.757300 51.249200 59.869715 73.062145 27.103467
794 89.104300 91.808500 69.958300 67.132526 78.397306 49.494207
795 88.929300 93.733800 80.309200 71.569397 82.371757 66.450917
796 33.262300 26.678300 22.839500 5.9602768 5.9226647 4.1804061
797 37.684300 34.601900 23.399200 8.4820737 9.3548054 4.6991965
798 37.459500 57.194500 33.343900 15.822138 22.716475 10.507352
799 31.168700 90.813100 39.062400 34.589525 61.409562 18.026717
800 14.896000 92.229300 43.011800 33.725965 62.512953 20.676257
801 86.524100 72.682500 0.0000000 44.463671 48.720240 3.8492053
802 92.266400 77.770600 14.449000 52.220732 57.435032 5.8232083
803 77.801600 62.518400 42.839800 36.116258 36.445868 16.930533
804 89.237300 65.165700 48.546400 46.070429 43.372739 21.558744
805 52.644600 43.549700 44.125000 16.899034 16.483474 16.214815
806 69.211500 43.917300 65.452600 28.343412 21.789275 37.443900
807 72.574200 44.737300 76.313500 33.258322 24.143805 53.533886
808 84.654600 53.043500 78.792000 44.412065 33.558397 58.542922
809 48.937100 47.835000 35.555000 15.856915 17.875984 11.062999
810 49.953500 50.329400 57.774800 20.107675 20.612275 28.566742
811 52.167900 57.914300 51.541600 22.461697 26.196556 22.945668
812 55.460100 74.248600 51.663600 31.987501 43.241549 24.916463
813 54.750900 88.493400 51.474100 41.135744 61.926403 26.868186
814 9.2622000 27.607400 14.513200 2.5637571 4.4429644 1.8223877
815 37.797300 36.712300 15.810500 8.5076156 10.109463 2.4721686
816 34.136400 32.432200 0.0000000 6.4190992 7.6348350 0.7825773
817 45.731600 43.514600 24.798800 12.802635 14.717763 5.7325687
818 46.478700 48.804700 42.751000 16.223606 18.374104 15.525427
819 47.335800 55.297600 61.504200 21.779456 23.948465 33.134813
820 16.959600 54.963900 45.419500 12.755538 19.611244 17.754396
821 15.449900 72.304100 62.126100 23.642571 36.849228 35.292689
822 31.334400 92.329700 85.316600 46.020915 67.060524 75.030764
823 44.900200 100.00000 92.051400 58.291667 82.473857 90.724777
824 0.0000000 35.992800 32.184600 5.1203988 7.9417881 8.2317288
825 16.909400 52.557700 64.864500 15.312306 18.938534 36.875087
826 43.149400 53.465000 71.030900 22.289315 22.752565 45.884317
827 52.164500 59.565800 86.517300 32.168766 30.518036 72.958147
828 60.046600 66.081500 100.00000 44.481918 40.338288 106.82758
829 92.763100 12.227300 61.962900 37.979895 19.038324 32.360199
830 91.537400 16.502800 71.026400 39.419236 19.806804 44.530495
831 38.537400 0.0000000 47.108600 7.4461348 3.2612452 17.208276
832 52.733000 17.801900 57.484800 14.185583 7.6225040 26.799651
833 54.519600 26.745300 57.804500 16.162777 10.388853 27.451729
834 65.085400 60.706500 57.110800 30.196337 31.784367 28.812948
835 71.475600 66.537400 71.962000 39.972709 40.256418 48.671858
836 14.159900 10.277500 93.402500 16.032652 5.4049946 85.842856
837 13.606600 9.7114000 83.270500 12.140182 4.1447043 64.458921
838 29.826200 22.442600 89.236800 17.645711 8.3642332 76.797247
839 41.901600 0.0000000 78.056600 15.003825 5.7251396 55.148790
840 58.649600 17.515600 76.611000 21.142712 10.210053 52.990531
841 68.747600 23.177200 85.346500 29.525104 14.970713 68.966047
842 36.237300 8.3066000 22.932500 4.7214436 2.5476400 3.8186025
843 46.028100 8.7985000 22.878100 7.2494004 3.8828863 3.8423734
844 65.576600 7.5873000 26.035900 15.095163 7.8464821 5.0562144
845 66.208900 16.398800 67.885900 22.270783 11.056023 39.911782
846 67.180300 31.672100 70.637500 25.725568 16.035824 44.303970
847 78.799300 10.027300 70.132500 29.630913 14.104893 42.964207
848 70.532700 0.0000000 72.269100 24.796411 11.155683 46.106268
849 91.284700 5.5702000 76.177500 39.990104 18.862474 52.340591
850 90.187100 6.5047000 91.834700 44.610564 20.086074 82.621123
851 12.594200 9.6169000 14.710900 0.8282384 0.6804237 1.4455661
852 18.269200 9.4946000 33.523500 2.5778918 1.3159438 8.3518259
853 68.029300 8.8712000 91.449200 30.019250 12.717553 81.502435
854 73.723200 50.569900 90.844500 40.759673 29.627196 81.663405
855 17.045700 23.594000 71.643200 10.294814 5.9773057 45.061193
856 20.635700 36.993200 78.078700 15.070100 11.758153 55.887294
857 33.232800 44.221400 88.295600 22.465441 17.517444 75.638770
858 48.193100 28.426200 16.764300 9.7343475 8.3534032 2.3733788
859 60.916700 41.515600 18.370700 17.473983 16.430154 3.5088755
860 73.556200 52.648800 18.577200 27.351045 26.328906 4.2530990
861 90.465900 76.848700 29.000600 51.271682 55.915671 10.707557
862 100.00000 77.180300 47.659300 61.281383 61.156742 22.668316
863 17.242500 15.805100 7.2631000 1.4723878 1.6539259 0.4935976
864 21.232100 16.078800 10.276700 2.0041618 1.9562049 0.8452941
865 25.529200 20.150000 9.7868000 3.0719566 3.1886812 0.8387585
866 36.955700 38.829000 54.889200 12.823713 12.340443 24.710855
867 46.047700 52.625600 54.439800 19.102796 21.389795 25.268684
868 52.669500 53.077000 67.095400 24.094005 23.674865 40.381230
869 15.718700 0.0000000 36.304600 2.3807687 0.9117947 9.8379953
870 22.209000 10.603200 41.875900 4.0374334 2.0092909 13.416165
871 10.244600 8.2543000 32.709500 1.7998880 0.8740667 7.8526022
872 12.366500 15.625300 36.396300 2.7308508 1.9498899 10.016741
873 23.267100 81.186100 90.009500 38.320832 50.782230 82.733398
874 43.970700 84.368100 100.00000 49.616463 59.041822 108.71449
875 63.292300 93.670700 100.00000 63.712416 76.579325 110.37889
876 25.131800 8.3598000 11.267800 2.1107830 1.3082878 0.8608760
877 33.597000 8.8814000 11.839300 3.6585183 2.1288349 0.9805349
878 41.404600 8.9119000 11.646200 5.4607203 3.0620951 0.9502790
879 92.067600 11.225000 17.282500 31.944196 16.944534 2.2076521
880 91.762600 8.3189000 23.344100 31.943395 16.677094 4.0590561
881 100.00000 20.811100 22.658700 39.683888 22.218745 4.1001874
882 100.00000 19.733000 59.756100 44.242858 23.440275 30.274263
883 8.4237000 12.039100 7.3269000 0.5698292 0.7961767 0.4375747
884 12.961300 14.302200 8.7206000 1.0117329 1.2653338 0.6209542
885 16.357600 25.321000 18.195300 2.8816061 4.0610533 2.6816836
886 23.338400 30.321900 25.762400 5.0589695 6.3274398 5.4271194
887 42.797200 56.366100 25.233800 16.194018 22.568805 6.8267396
888 53.297800 60.056200 32.935600 21.560398 27.472486 10.608903
889 63.863600 65.191500 53.398900 31.134289 35.524677 25.457431
890 63.477500 72.648300 67.773900 37.846020 44.230089 43.116700
891 16.795500 11.923200 11.686000 1.2248502 1.1151358 1.0008040
892 23.897000 15.235800 15.881900 2.4941529 2.0826079 1.7806113
893 29.195200 24.916700 17.468700 4.6273113 4.8837615 2.5094058
894 25.043600 19.511500 35.480700 4.5333463 3.5303892 9.6726356
895 30.403000 24.151300 35.451900 6.0565888 5.2086415 9.8098581
896 60.056600 32.971000 55.977600 19.254589 13.719173 25.776756
897 68.163100 44.452100 59.037600 26.467873 21.355035 29.697892
898 59.799700 16.692800 15.753400 12.430465 7.4247580 1.7872854
899 70.506700 16.650700 16.898400 17.810195 10.198513 2.0737293
900 80.775000 28.504600 42.383000 27.899088 17.389224 14.493057
901 80.042000 56.471200 88.009200 45.679565 35.495137 76.185090
902 82.996600 87.239200 92.157800 66.659845 71.609084 89.046974
903 19.054700 47.730400 50.012000 11.201077 15.094613 20.693341
904 27.129200 57.012000 62.914400 18.037877 22.959845 34.872851
905 34.084400 65.935500 67.296500 24.414919 32.021947 41.517585
906 44.336200 67.717600 79.039100 31.192869 36.247788 60.070194
907 59.310500 67.883300 81.636900 37.418559 39.489978 64.751625
908 13.473800 31.729700 35.137300 5.0175249 6.5501918 9.8492564
909 32.628500 38.762100 47.573100 10.729134 11.446773 18.461158
910 40.839100 55.285700 66.275600 21.027816 23.316345 39.200910
911 47.104400 74.795700 82.584900 37.044141 44.868399 67.157617
912 51.136700 74.478900 90.081900 40.855780 46.064240 82.170666
913 0.0000000 60.879800 71.368800 19.421578 25.684946 46.042250
914 18.278700 67.368400 70.671700 23.418290 32.391817 46.325834
915 59.587600 67.501500 90.242400 40.344918 40.060278 81.536142
916 12.374600 6.9379000 17.680000 0.8305304 0.4987736 2.1155448
917 16.937100 6.8020000 23.382400 1.5099658 0.7785927 3.8975822
918 67.441800 20.675700 22.788100 16.987966 10.410103 4.0603813
919 80.438600 51.098000 21.753700 31.221915 27.560916 5.1286697
920 91.595700 51.208600 21.102500 39.254545 31.765847 4.9356604
921 100.00000 60.340000 89.595800 63.219398 46.944240 80.255616
922 15.610300 3.3751000 13.888200 0.8686715 0.4632176 1.3064902
923 25.247200 6.0665000 22.624900 2.5377763 1.2963568 3.6823275
924 31.291600 23.602500 60.368700 9.7770228 6.2746648 30.049451
925 32.484500 45.225700 65.870400 15.772894 15.849144 37.871653
926 11.506300 39.141600 45.354700 7.5964996 10.039412 16.625337
927 8.7767000 61.081000 60.830100 17.203199 25.154005 32.413974
928 13.592600 80.916600 65.914800 29.547903 47.453000 41.361041
929 29.721800 86.005800 65.833800 35.318854 55.667821 42.346953
930 53.147800 64.801100 9.4498000 22.219939 31.162267 3.4144661
931 64.245100 70.898000 11.643900 30.284340 40.071428 4.4534255
932 67.417400 78.243600 25.532800 37.002032 49.920290 9.3257780
933 10.148200 42.690000 10.770800 5.6924908 10.752783 1.8955719
934 16.496300 48.890800 9.9502000 7.8107830 14.390083 2.1461786
935 51.036800 60.883900 18.839800 20.044059 27.391966 5.0051817
936 70.249100 88.655800 71.585100 53.014645 67.462214 51.022445
937 79.444800 89.524000 71.418600 59.048095 71.592134 50.974936
938 10.709200 16.835600 4.3908000 1.0051220 1.5491638 0.3526574
939 12.412100 18.504200 22.836400 1.9463409 2.2348240 3.8930708
940 27.162600 20.824400 23.854800 4.0539608 3.7069413 4.3687398
941 36.004600 24.452400 30.194400 6.7565357 5.7226486 7.1140985
942 50.607800 29.363400 34.835200 11.974980 9.5135194 9.7627862
943 74.916000 31.077700 35.591000 23.929379 16.174514 10.361199
944 50.259300 0.0000000 11.695200 7.7576870 4.0449953 0.9431282
945 63.500800 12.701600 22.113400 14.154094 7.7903221 3.6647328
946 71.730000 23.398500 47.348500 22.104116 13.091843 17.804351
947 85.529400 24.378100 68.756300 35.375347 19.295724 41.429395
948 30.111100 0.0000000 30.959700 3.8624436 1.7875559 7.0913186
949 30.636700 0.0000000 53.605200 6.6922615 2.6700971 22.519360
950 35.755400 11.493100 63.624100 10.073148 4.4230314 33.682320
951 33.895400 79.721300 67.258600 32.241852 47.677990 43.225051
952 57.484700 80.162400 72.002900 40.876432 52.308091 50.437932
953 66.383000 84.982100 12.318400 40.250634 58.362332 6.4243793
954 89.372100 91.732200 17.302000 60.052246 76.080645 8.6826790
955 20.573300 31.662200 9.5544000 4.1335604 6.3281428 1.1908653
956 21.470800 32.863500 23.600900 5.1142346 7.0953619 4.6803681
957 20.962600 34.426400 31.490100 5.9851743 7.9155801 8.1489598
958 51.178700 46.826500 51.589200 18.352034 18.389004 22.256463
959 55.458600 47.313400 56.762600 20.969894 19.752294 27.339932
960 61.206800 57.541500 85.589900 34.683346 30.652907 70.973088
961 67.988600 66.365000 89.839200 43.822098 41.067109 80.931253
962 78.161100 70.382500 91.183700 52.381530 48.526010 84.273536
963 16.824800 61.506700 56.335400 17.094149 25.557566 27.665476
964 25.085300 66.458700 64.417000 22.307220 31.451207 37.767096
965 63.899200 78.940500 67.859300 41.918292 51.919841 44.213142
966 70.759200 48.332400 25.949800 24.824664 22.927325 6.5147979
967 79.943200 47.946600 29.034900 30.491894 25.657516 7.8240039
968 79.056600 51.675800 70.407200 37.818834 29.951046 45.077393
969 54.695400 5.0984000 32.161300 10.667001 5.3446406 7.8168857
970 53.937500 23.504400 32.426100 12.048257 8.2316191 8.2677752
971 52.849000 9.7860000 47.731400 11.927921 5.8433607 17.786333
972 60.345400 11.198500 57.648700 16.702481 8.0893551 26.980312
973 76.755300 15.064900 60.261500 26.327314 13.371843 30.124633
974 75.952100 28.785500 65.705400 28.889937 17.145634 37.323895
975 81.610200 41.482300 72.588700 37.049881 25.020095 47.577579
976 90.873800 57.496300 77.383800 50.308896 39.257678 56.567476
977 69.322800 60.909400 45.406900 30.688798 32.532397 18.563042
978 68.819100 70.580700 49.148000 35.898030 42.239539 22.443153
979 79.699400 77.410600 46.962000 45.942292 53.420601 21.631735
980 84.299500 78.805200 86.079500 59.487572 59.934432 74.737372
981 39.159300 40.196600 69.575200 16.952622 14.310063 42.987687
982 60.540800 39.996700 84.026400 28.315880 19.265744 66.894536
983 78.302200 44.363900 89.770800 41.299662 27.276106 79.029803
984 90.583100 55.409200 93.511200 55.000805 39.352078 88.018531
985 44.027800 10.338800 39.441900 8.2367049 4.2214884 11.958516
986 51.918100 15.665300 39.853100 11.074553 6.1962147 12.297543
987 75.881900 38.735000 48.592100 27.695601 20.190154 19.463216
988 77.037100 47.976000 53.691300 31.652004 25.694576 24.383857
989 68.722900 62.039100 53.314300 32.085818 33.796937 25.093980
990 78.516600 69.292700 61.986000 43.200050 44.581939 35.443671
991 79.000000 69.898800 72.036900 46.323160 46.196640 49.345750
992 91.419800 72.583700 74.180200 57.210021 53.941301 52.977212
993 91.408800 31.668000 25.075400 34.537360 21.983225 5.3385805
994 91.838000 40.875400 32.367000 37.433472 26.379186 9.1233784
995 92.204900 53.134700 42.139500 42.412505 34.057417 15.764453
996 50.824400 31.614300 8.9711000 10.896041 9.8073124 1.1079722
997 51.097400 47.340700 10.372300 14.785096 17.329304 2.1410783
998 62.578200 53.629600 12.927500 21.573816 23.881025 2.9554915
999 60.862600 93.470800 14.208400 44.062156 69.812574 8.2382107
1000 12.708400 70.327900 15.329200 16.876022 32.691337 5.0386685
1001 26.913200 77.960600 16.859000 23.154113 42.523679 6.3323451
1002 36.976300 82.015900 29.660300 28.709053 49.178820 11.573516
1003 100.00000 82.857700 83.254000 73.473174 71.259214 70.363765
1004 100.00000 83.288100 92.539300 77.011145 72.894205 89.195884
1005 9.8543000 12.697300 28.585700 1.6563989 1.2110008 6.0046450
1006 12.114200 45.901500 76.048700 15.824754 15.612454 52.689065
1007 23.141800 52.717100 83.950300 21.721505 21.300525 67.527779
1008 49.044500 65.944900 84.487800 33.485938 35.779017 69.777602
1009 41.346500 21.990100 24.498000 7.3285313 5.6244956 4.6823622
1010 60.622100 23.551800 28.222500 14.412797 9.5408474 6.2912795
1011 63.670100 31.394800 43.845800 18.755059 13.378623 15.497673
1012 41.623600 15.440300 19.130200 6.2882998 4.0378273 2.7344161
1013 46.645300 19.658700 18.623000 8.1209709 5.6717076 2.7060472
1014 89.214800 46.585200 29.978800 36.751614 28.285656 8.2063103
1015 90.394800 77.837000 67.852600 57.923442 59.239082 44.578204
1016 91.751100 77.878300 74.674300 60.713442 60.361092 54.502033
1017 92.173700 100.00000 92.486700 83.784099 95.723459 91.983609
1018 8.9312000 21.317700 23.255800 2.0950004 2.7807181 4.0981087
1019 11.503700 21.128900 47.254600 4.5821533 3.5588112 17.310455
1020 13.109800 28.079300 48.275300 5.8704145 5.7259956 18.327482
1021 27.016000 36.590400 59.935000 11.242422 10.574803 29.976267
1022 61.584100 55.359300 74.490200 30.485795 27.868256 51.327310
1023 71.623800 60.314600 84.674100 40.966946 35.692007 69.713622
1024 14.024900 7.5046000 10.070600 0.7474496 0.5571166 0.6901810
1025 19.717400 10.429400 14.003900 1.5708349 1.1643608 1.4003798
1026 22.164400 29.812700 38.377100 5.9226289 6.4187438 11.667894
1027 48.660800 31.767100 61.165700 15.715629 11.324733 31.449098
1028 50.944200 45.271500 62.007700 19.816173 18.138804 33.145278
1029 61.368600 47.502900 71.782700 27.014163 22.333435 46.654987
1030 77.191200 89.909000 85.101600 62.172325 72.785015 74.659005
1031 82.190200 90.489600 90.572500 67.836486 75.923025 85.797555
1032 33.415700 46.899300 46.923500 12.973736 15.758904 18.451973
1033 48.986600 80.346800 52.844300 33.618453 49.553440 26.742204
1034 74.448100 82.669200 72.904700 51.494013 60.273152 52.055533
1035 36.420400 57.474300 41.362000 16.506718 23.095165 15.258209
1036 62.634800 65.217600 59.252100 31.614359 35.569087 31.613589
1037 67.785900 77.324700 59.120400 40.902042 50.295850 32.979823
1038 73.793700 86.257900 61.814800 50.830924 64.115103 37.471365
1039 69.934800 77.073600 41.743100 39.241672 49.778920 17.870015
1040 88.880700 81.481300 65.084900 58.367103 63.022383 41.077445
1041 24.613400 10.502200 0.0000000 2.0161856 1.4368238 0.2154593
1042 35.643100 12.871600 10.604200 4.3128996 2.7943531 0.8619372
1043 37.892400 18.835800 10.517400 5.4008068 4.1746743 0.9668087
1044 87.363200 35.479500 13.519000 31.552271 21.695255 2.0485640
1045 90.869200 60.425100 10.068700 41.761837 38.337368 3.0758759
1046 0.0000000 10.342400 45.770000 3.0603567 1.3925848 15.567605
1047 12.425900 15.116700 51.256700 4.5407819 2.4365170 20.372750
1048 15.816100 22.195700 54.714300 6.1926225 4.3482374 23.829475
1049 37.941400 32.861700 59.920900 12.717940 10.149343 29.914586
1050 91.207100 41.730500 60.609200 41.234362 27.881416 31.834466
1051 90.306200 74.168600 85.497400 60.935131 56.521032 73.248431
1052 69.795100 72.771800 86.242600 46.887190 47.997090 74.191327
1053 72.401600 80.047700 86.008900 52.633032 57.443342 74.779721
1054 72.826900 85.956400 94.050900 60.130664 66.744434 93.223992
1055 0.0000000 33.703300 52.768900 7.1318773 7.7865290 21.889666
1056 18.308500 39.477100 68.092700 12.631322 11.896963 40.657604
1057 33.842400 46.125200 73.947900 18.437933 17.148724 49.747149
1058 62.170600 20.617600 52.757800 17.646425 10.071592 22.165202
1059 69.957000 36.055400 66.105500 26.951930 18.239484 37.953066
1060 0.0000000 8.9646000 12.194900 0.3653927 0.4169866 0.9266776
1061 15.432900 11.206100 23.548600 1.5930873 1.1123528 4.0490891
1062 19.688400 13.490500 30.094700 2.7215055 1.8589729 6.7682650
1063 73.287000 10.812000 38.671700 20.661843 10.705953 11.641993
1064 76.679600 46.773800 38.233800 29.025444 24.220425 12.722581
1065 76.892900 83.989200 7.0959000 45.433594 59.941042 5.5984075
1066 88.739300 92.893500 0.0000000 60.048316 77.371746 6.8547212
1067 19.694600 24.809000 8.9045000 2.8689169 3.9891763 0.8827824
1068 29.288800 29.383700 8.8655000 5.0452522 6.1828487 1.0349457
1069 53.728500 34.296800 90.977300 26.823667 16.045604 81.127405
1070 19.956700 29.164600 54.334700 7.7012994 6.7386278 23.776740
1071 22.848300 28.393000 69.253600 11.185907 7.6689590 41.791618
1072 21.993700 28.531800 87.910800 16.887794 9.4748524 74.152845
1073 87.652400 30.352800 87.401000 43.575138 23.846145 73.277601
1074 89.263800 36.346800 100.00000 51.633990 28.730216 104.61227
1075 21.195900 0.0000000 24.234400 1.9872009 0.9215967 4.2491570
1076 22.283700 46.503900 27.018800 8.7598347 13.782193 6.7275802
1077 43.726300 54.211900 36.232900 16.520307 21.366025 11.893830
1078 60.278700 71.973400 44.279200 31.698011 41.348259 18.926794
1079 63.259500 92.591400 47.765700 47.478066 70.006284 24.544517
1080 53.694100 74.600600 23.033500 28.410101 42.195059 7.8388666
1081 54.823400 76.840800 40.416800 31.769292 45.683999 16.866915
1082 64.289400 46.935800 37.068400 21.972034 20.649605 11.906300
1083 74.057300 51.809800 37.055600 28.847745 26.459426 12.306782
1084 76.124200 55.211200 54.080400 33.568226 30.299216 25.278039
1085 92.014700 64.825300 72.320300 53.079589 45.816809 49.382930
1086 100.00000 72.497800 76.155600 64.703411 57.630612 56.398522
1087 29.690000 9.3937000 6.4029000 2.8011786 1.7262739 0.3171637
1088 38.725200 32.321500 39.048200 9.6167947 9.0005753 12.253910
1089 49.223600 37.790300 46.526900 14.642052 13.188243 17.637571
1090 0.0000000 48.585800 85.164200 19.184444 17.951924 68.903523
1091 27.961300 64.627000 86.621700 28.474758 32.033197 73.865788
1092 32.790800 75.035700 90.437300 36.510791 44.230239 83.126784
1093 64.129800 39.009900 27.009600 18.964442 16.251644 6.4239548
1094 91.476900 40.237000 45.837800 38.552002 26.465196 17.572560
1095 91.047500 44.903300 53.587200 40.622593 29.089866 24.482548
1096 92.944100 67.636500 57.996100 51.901229 47.959570 30.960853
1097 0.0000000 62.914200 17.148700 12.829971 24.966375 4.6321235
1098 0.0000000 62.682300 48.684000 15.624990 25.814446 20.483768
1099 13.667600 63.327900 52.597900 17.068460 26.930136 24.271988
1100 50.480500 63.000700 65.251300 26.945098 31.300227 38.673656
1101 86.139300 76.208200 91.543600 61.339782 58.055682 85.910190
1102 28.841200 8.0383000 71.203100 10.416414 3.9383653 44.245329
1103 29.851500 21.357100 71.058800 11.715553 6.2921548 44.197986
1104 55.712000 44.974200 76.873400 25.303342 20.088184 54.486012
1105 57.686000 74.666300 83.521900 41.143801 46.797270 69.036207
1106 71.680900 87.822200 89.121400 58.844565 68.451984 82.292023
1107 42.160800 65.687100 63.660300 25.425309 32.523387 36.734597
1108 48.471300 70.266900 73.142300 32.109980 39.070378 50.783887
1109 58.256800 89.163100 73.965300 48.094255 65.319723 54.634244
1110 45.238000 100.00000 64.281900 49.918727 79.985376 42.908158
1111 59.656100 100.00000 85.120400 61.152428 84.637947 76.605167
1112 0.0000000 83.853700 58.869200 29.511383 50.784830 32.652353
1113 14.025600 92.828700 100.00000 50.254945 68.664474 110.02019
1114 15.659400 21.647100 79.204100 12.116061 6.0603997 57.415872
1115 38.064100 22.150900 81.755300 16.718472 8.3773712 61.851847
1116 66.136000 30.637300 16.111500 17.495550 12.986173 2.3297009
1117 74.331800 32.552800 26.214700 23.050410 16.288184 5.7755493
1118 81.830700 31.812400 32.013100 28.110359 18.592674 8.4063882
1119 52.188700 10.594200 9.1661000 8.6985091 4.9099635 0.5644717
1120 69.733400 22.445400 9.5731000 17.910977 11.314523 0.8591571
1121 80.427200 49.332900 11.068400 30.114994 26.155216 2.3127813
1122 80.261700 69.584100 12.460700 38.799930 43.475489 4.4033218
1123 78.742200 77.054000 13.632200 42.238222 51.595251 5.6173030
1124 90.092800 83.875500 13.651800 54.568864 64.662623 6.5919656
1125 100.00000 87.334500 18.495000 65.237725 73.786945 8.3799319
1126 69.671000 13.694300 9.5626000 16.945134 9.4881544 0.6710000
1127 79.411500 12.739300 13.282600 22.754685 12.340733 1.3054464
1128 92.303800 25.996500 17.700500 33.776688 20.240454 2.6559582
1129 13.724000 62.219600 36.470500 14.496670 25.189195 12.628831
1130 12.105400 79.581300 36.119500 23.767753 44.115769 14.445855
1131 23.742000 90.760300 60.424200 36.583215 61.794323 36.253965
1132 29.620400 90.650300 90.155500 46.223815 64.936463 84.687832
1133 49.759500 91.320500 91.487800 52.376455 68.713154 87.625153
1134 55.842900 31.331700 28.620100 13.736000 11.061713 6.7448813
1135 55.597500 37.230100 28.668600 14.881092 13.480143 7.0150898
1136 62.016700 45.306300 28.421300 19.699054 18.947004 7.3767201
1137 83.044300 76.757400 36.712900 46.536262 53.339941 14.744936
1138 91.452700 89.813900 60.677100 65.400906 75.659605 37.059107
1139 92.710100 90.576600 84.316100 73.355266 79.258936 73.382806
1140 62.273100 71.099300 71.746400 37.557160 42.626749 48.793399
1141 61.572800 76.720700 79.433500 42.789851 49.711040 61.936609
1142 78.277300 94.333200 100.00000 72.762357 82.116297 110.65770
1143 10.708600 48.497400 31.796900 8.5748664 14.467613 8.9208877
1144 10.553300 58.133100 41.079900 12.975249 21.675895 14.972929
1145 0.0000000 43.702400 23.403100 6.3190535 11.426083 5.0328576
1146 10.336900 47.757300 70.408400 14.744275 16.143114 44.268160
1147 17.508800 55.592400 74.374800 19.054266 22.056655 50.956215
1148 43.288900 79.915900 80.475400 38.435792 50.332310 63.947039
1149 63.629900 90.869500 91.972200 57.934245 71.112244 88.939604
1150 22.716900 40.859000 30.297900 7.6333736 10.975733 7.8885960
1151 40.700700 45.754300 30.275000 12.467476 15.385454 8.2066918
1152 56.060000 48.192100 29.596800 17.948785 19.248054 8.0584227
1153 60.467800 51.596500 39.544000 21.960475 22.723345 13.793200
1154 20.737100 21.516900 15.980200 2.7727502 3.2382962 1.9462076
1155 35.995200 24.443200 16.866100 5.8963088 5.4559246 2.2617840
1156 54.605700 84.646200 18.923500 35.042894 55.290551 7.9639498
1157 92.640100 89.060100 43.838300 62.897196 74.055055 21.367998
1158 79.838800 16.656900 47.852400 26.334795 14.036623 18.052461
1159 86.690800 28.252500 63.889000 35.593728 20.566135 34.839539
1160 89.771400 35.297800 72.118300 41.349600 25.111735 46.903319
1161 0.0000000 15.524700 9.6696000 0.7210899 1.2290158 0.6886288
1162 9.4080000 16.364000 9.9300000 0.9631015 1.4581888 0.7739957
1163 8.9923000 21.805700 19.211700 1.9273127 2.8287461 2.8488053
1164 13.289500 34.468600 94.246400 19.622267 12.060553 88.423919
1165 18.436500 43.149400 93.810000 22.012080 16.413504 87.881033
1166 12.301600 78.390700 91.634700 36.024481 46.946440 85.941046
1167 38.409200 81.894500 92.073000 42.642962 53.660601 87.552008
1168 3.5363000 25.854200 41.343600 4.1860453 4.4857224 13.090819
1169 14.937700 30.075100 65.044300 9.4888751 7.4703880 35.998472
1170 26.417600 37.224300 69.999500 13.674701 11.563393 43.241951
1171 21.851300 7.5095000 15.498800 1.7341341 1.0355507 1.6089541
1172 28.063000 9.8384000 20.998000 3.0407588 1.7830619 3.1885896
1173 31.042300 9.8495000 28.516200 4.1014102 2.2304800 6.0601703
1174 38.860300 19.681400 32.701100 7.0473997 4.9207995 8.2511844
1175 49.396100 25.366700 39.158400 11.386458 8.1600831 12.097508
1176 58.489400 34.597200 73.021700 22.871599 15.301314 48.015447
1177 43.657900 23.969300 44.228100 10.122177 7.0693969 15.421281
1178 71.857400 49.430500 44.403000 27.620544 24.513305 16.877119
1179 41.770800 23.424000 8.9726000 6.8665816 5.7674347 0.8268732
1180 49.107100 26.111200 20.437300 9.8776214 7.8566941 3.4005704
1181 55.864800 22.600800 19.778600 11.685097 8.0469051 3.0980161
1182 64.829300 25.522300 18.737900 16.138878 10.996343 2.8997883
1183 90.248400 34.760500 52.627800 37.352300 23.776785 22.972986
1184 91.911900 34.718000 63.735000 40.813220 25.140785 35.081693
1185 29.665200 6.5837000 15.580900 2.9084517 1.5864398 1.5990110
1186 30.923200 48.420900 34.416200 11.389867 15.864434 10.435658
1187 45.813900 60.809000 56.371500 22.627168 27.949626 27.904457
1188 61.832700 66.355400 70.994700 34.564319 37.440218 47.082097
1189 64.397600 71.680700 79.304200 41.047920 44.514469 61.145257
1190 6.8919000 22.486000 60.425500 6.7798826 4.4869654 29.882538
1191 13.440200 22.958300 93.382600 17.242220 7.8840301 85.934717
1192 45.022700 64.923500 94.542300 35.771538 35.470447 91.511468
1193 60.108500 74.559000 93.945800 46.081730 48.530310 90.933966
1194 0.0000000 0.0000000 0.0000000 0.0869707 0.0928314 0.1044847
1195 24.097100 9.9340000 8.4828000 1.9526332 1.3303398 0.5377406
1196 29.223400 14.083900 10.536000 3.1307650 2.3498900 0.8790519
1197 34.833600 18.731100 23.752900 5.3023903 4.0024543 4.3003914
1198 50.882600 24.934000 27.362600 10.672358 7.9189701 5.9144581
1199 69.147900 25.901600 76.814400 27.500176 15.104193 53.671454
1200 77.571300 30.416200 87.037700 36.546407 20.247594 72.612926
1201 19.775800 47.883100 36.760000 9.7129366 14.738743 11.660807
1202 48.665200 64.283200 38.106300 22.490189 30.801337 13.924163
1203 32.602400 49.552600 14.943000 10.744178 16.229634 3.0366200
1204 38.513500 69.318100 19.844600 20.720771 33.865607 6.1907961
1205 44.801100 76.407500 32.309800 27.418212 43.198919 12.103496
1206 33.335100 47.717600 4.8042000 9.9542905 14.929273 1.6432414
1207 51.395600 54.088900 10.834700 17.094107 21.779455 2.6505735
1208 80.449500 56.852200 11.340500 32.917616 31.573007 2.9366244
1209 88.539000 67.219300 20.217900 43.782179 44.220979 6.0999293
1210 90.511000 71.864600 37.127000 49.253951 50.550530 14.473576
1211 5.6767000 14.547800 16.155700 0.8772115 1.1605038 1.7760233
1212 7.0954000 15.979100 23.698000 1.4460129 1.5419218 4.1225583
1213 20.770500 19.852600 24.141100 3.0127885 2.9890571 4.4113426
1214 24.529200 24.324500 31.590200 4.6998043 4.6056424 7.7726539
1215 12.260000 69.099100 25.890100 16.860551 31.678157 8.2221499
1216 17.405100 84.161600 50.375900 29.083614 51.133230 24.891724
1217 25.851700 91.356800 51.198400 35.701035 62.402063 26.926466
1218 35.953900 11.435400 18.935300 4.6056698 2.7524631 2.6032076
1219 44.866500 17.511600 27.279500 7.9250235 5.1178835 5.6703312
1220 81.212000 17.042800 55.256400 28.517675 14.994743 24.797288
1221 93.256200 49.178900 80.519100 50.183694 34.588577 61.303703
1222 95.085100 78.465800 83.751000 66.674783 63.465673 70.517643
1223 17.368500 67.406500 84.147700 27.420109 33.715317 69.138360
1224 16.422200 76.077700 94.710700 36.244031 44.644829 92.786114
1225 42.342100 15.185600 74.758600 14.916369 6.6993448 49.985514
1226 51.455400 22.516000 84.409300 21.503533 10.750043 67.115805
1227 21.884600 18.673100 41.656900 4.6375104 3.3073282 13.370108
1228 30.864100 23.393600 48.943100 7.6595584 5.5449986 18.868800
1229 58.849000 43.911700 51.262500 20.542093 18.378454 21.994613
1230 68.779000 52.702900 8.4840000 24.207416 24.745465 2.2489342
1231 92.843800 68.564400 9.7179000 47.263790 47.085180 3.8335492
1232 91.905300 72.420500 50.067500 52.309361 52.285741 23.757605
1233 90.984700 73.435700 59.019900 53.683751 53.585371 32.756254
1234 34.690300 41.496800 10.187400 8.7572202 11.910503 1.7879805
1235 62.784100 45.357600 13.018200 19.052754 18.758884 2.4083002
1236 73.639000 64.455900 30.906500 33.219739 36.572658 10.075485
1237 81.053700 63.673000 26.506300 37.107268 38.080298 8.0248760
1238 89.023500 64.515300 39.656500 44.507809 42.342339 15.224085
1239 11.075400 64.351700 87.761200 26.637678 30.793337 75.870947
1240 9.0693000 86.677700 91.700300 41.377054 57.986342 87.202460
1241 29.563200 56.452100 11.128000 12.411139 20.703805 2.8737661
1242 33.227200 73.063400 9.7861000 21.149532 37.141668 4.3936362
1243 43.278400 88.587300 17.333200 34.137755 59.002902 8.1178120
1244 52.123300 92.079200 60.617500 44.636585 67.426334 36.972796
1245 66.315200 92.133800 60.069100 50.784035 70.743084 36.452877
1246 11.114400 8.0087000 26.247900 1.3131921 0.7163617 4.9850840
1247 27.204300 14.639100 37.003100 4.5188059 2.7391311 10.452434
1248 32.949500 16.873900 47.146100 6.9850200 4.0473503 17.252579
1249 43.283000 17.707300 59.283500 11.627673 6.2023357 28.831182
1250 70.986500 30.843200 58.510200 24.860388 15.946454 28.486887
1251 76.191900 9.2048000 33.037600 21.774824 11.268343 8.3652727
1252 85.551700 11.876400 35.245600 28.432295 14.930793 9.6591194
1253 91.545700 10.784100 43.930800 33.915605 17.452544 15.254226
1254 91.413300 8.8012000 50.946600 34.598915 17.446104 20.644003
1255 91.120000 50.508300 61.206100 43.828004 32.877557 33.066158
1256 60.724400 8.2350000 10.014000 12.079433 6.4788428 0.6896750
1257 71.446200 7.9375000 20.455000 17.948973 9.4259674 3.0587092
1258 81.950400 15.112100 27.898500 25.442475 13.827723 5.9833230
1259 92.335400 26.813300 45.437800 36.457198 21.358885 16.716928
1260 92.616600 56.558900 57.893100 46.533266 37.647778 29.796570
1261 42.582000 18.014100 47.505300 9.5165390 5.5784786 17.763391
1262 42.126900 43.243800 53.499800 15.043174 15.165183 23.746949
1263 42.115700 43.999000 65.129900 17.579733 16.308014 37.032394
1264 40.251900 5.4734000 17.347800 5.2673930 2.7547441 2.1349618
1265 48.894500 8.7671000 18.615700 7.8435369 4.2394694 2.4828079
1266 52.091300 17.826300 23.467400 9.9266485 6.2563068 4.2092497
1267 55.125300 20.496500 36.881300 12.511146 7.8162091 10.638649
1268 54.403800 58.320500 77.256600 29.482896 28.968406 56.072630
1269 72.802600 62.821500 77.816200 40.642117 37.630068 57.784845
1270 74.334300 74.453300 80.158100 48.426421 50.642840 63.021040
1271 13.954000 14.129800 64.638200 7.2531069 3.2130372 35.050087
1272 23.244700 15.826400 71.519500 10.123838 4.4872084 44.798496
1273 26.349300 51.214800 74.833800 18.863495 19.639544 51.490892
1274 23.391000 65.358200 73.225500 23.824529 31.005057 50.140513
1275 37.540800 72.482900 77.216600 31.438070 40.309618 57.370456
1276 52.637900 81.311200 92.672500 46.814712 55.219111 89.080949
1277 9.7312000 4.0615000 10.227600 0.3694274 0.2368446 0.6743463
1278 16.727600 9.8380000 15.900900 1.2159772 0.8931757 1.6864967
1279 23.664700 13.601900 22.040800 2.6751823 1.9681909 3.5486669
1280 43.428100 27.661100 23.903500 8.6476415 7.5391940 4.6261308
1281 42.030700 33.964700 19.037000 9.1428391 9.5553984 3.2680479
1282 57.295800 34.389200 19.090800 14.271061 12.341193 3.3353763
1283 77.315200 93.680300 18.327700 53.365476 74.910235 9.2799549
1284 87.027100 94.485300 31.906200 61.577407 80.072006 14.898179
1285 20.106500 82.275400 27.428900 25.538163 47.772840 10.534407
1286 42.265900 83.760700 76.440800 39.530763 54.997381 57.701282
1287 63.024000 89.671400 83.478800 53.545985 68.119684 71.299804
1288 88.896700 8.8068000 9.9321000 29.137545 15.370884 0.6549060
1289 92.084700 30.218500 7.3680000 33.921839 21.361635 0.8928083
1290 90.612500 20.357300 9.6630000 31.414027 17.936164 0.8051381
1291 92.222900 53.419800 11.179200 40.117936 33.410467 2.6351828
1292 91.863200 55.735600 32.075000 41.953916 35.477267 9.9923729
1293 58.456700 28.754500 80.641300 23.937486 13.723843 60.277718
1294 69.446600 58.951900 92.520600 42.248116 34.953747 86.193598
1295 79.921000 82.239800 93.446800 61.638443 63.710113 91.078112
1296 100.00000 100.00000 100.00000 93.750160 99.999780 112.66940
1297 7.2072000 31.800800 77.771700 12.712928 8.9254813 54.817434
1298 29.942600 36.436400 85.970200 19.064879 13.081483 70.548871
1299 42.114900 41.069400 91.664700 25.123280 17.461524 82.945207
1300 60.642200 48.432200 93.564500 34.387632 25.064725 87.678178
1301 32.851400 9.4011000 49.312700 6.7116808 3.0552541 18.901664
1302 40.642000 23.450000 56.765800 11.174426 7.1039439 26.221609
1303 40.070400 94.213500 66.920800 44.149656 69.527994 45.166616
1304 13.184100 56.883700 14.833300 10.486790 19.899324 3.5282574
1305 15.492600 95.205200 14.438200 33.903226 66.697414 8.5273485
1306 82.325600 96.352200 50.300800 62.134157 82.165497 27.482428
1307 12.000600 38.093600 24.107600 5.3018576 8.8659563 5.0420206
1308 29.259300 43.619000 25.912100 9.0155657 12.751283 6.1164472
1309 66.887700 29.591700 28.608400 18.524119 13.090333 6.7231118
1310 66.727800 30.595500 36.966200 19.381109 13.643283 11.095426
1311 79.761500 37.022100 54.342400 30.688940 20.980985 24.584214
1312 82.382500 48.631700 63.822600 37.385744 28.582636 35.836855
1313 39.059900 39.455600 77.595500 19.017340 14.676393 55.336502
1314 41.200600 54.990300 79.477900 24.705765 24.412735 59.463885
1315 52.760600 57.162600 92.535100 33.833675 29.481416 85.896284
1316 14.612500 9.1750000 70.973900 8.4906813 3.0062051 43.710520
1317 17.672500 17.328500 84.116000 13.433618 5.6375306 66.222318
1318 76.953100 19.362900 92.001500 36.411604 17.269504 83.008057
1319 82.804200 42.184800 97.065600 46.938311 28.715426 96.477951
1320 17.451700 23.853600 20.637700 2.9384219 3.7539263 3.3425946
1321 26.730500 26.563900 22.026500 4.7235390 5.2667546 3.9350520
1322 10.922400 25.780500 8.8646000 2.2009180 3.8473953 0.8950665
1323 11.594200 33.621400 10.123100 3.6766199 6.6520518 1.3768910
1324 28.702400 35.158900 11.185300 6.1497087 8.3952662 1.5613635
1325 33.784400 38.894200 20.826500 8.4299684 10.772843 4.0709325
1326 60.516400 32.889600 8.8480000 14.967441 12.288493 1.1685347
1327 67.292400 41.237500 9.4765000 20.124233 17.711154 1.6084900
1328 80.033800 41.166600 8.6882000 27.583362 21.564635 1.5570575
1329 92.964700 43.408800 11.098600 37.695973 27.664806 1.9641987
1330 91.706700 80.627200 47.479700 56.701323 61.927623 22.804926
1331 12.461500 79.452400 13.406000 22.121783 43.383929 5.8799013
1332 28.276100 89.848100 15.852400 31.582515 59.144582 7.9082510
1333 9.8481000 51.866500 25.405900 9.1163272 16.460314 6.4240979
1334 73.526100 53.952400 76.734100 36.968465 30.359106 55.137361
1335 89.578000 65.146400 79.551400 53.467698 45.851799 60.974608
1336 67.908400 51.809700 60.470800 28.907515 25.838186 31.953274
1337 70.693900 59.997300 68.258500 35.433177 33.563057 42.598286
1338 61.335600 52.565700 54.302800 24.793575 24.322455 25.328446
1339 61.798400 55.311200 61.108200 27.316986 26.871676 32.921575
1340 10.565200 28.125800 20.181900 3.0246304 4.7686635 3.3504518
1341 11.087800 29.881000 25.455700 3.6846501 5.5105086 5.2936236
1342 10.324000 33.505700 32.659000 4.9037160 7.0597009 8.5477196
1343 40.264000 49.505400 38.954800 14.298206 17.781784 13.148348
1344 60.696700 59.420000 43.249100 25.549927 29.012716 16.841861
1345 80.462300 61.709600 65.951400 41.606647 38.012548 39.823758
1346 30.550000 31.899200 23.684700 6.4028780 7.4910710 4.6969666
1347 34.204400 35.209700 30.205300 8.2887729 9.3591014 7.5303047
1348 54.736900 39.162500 60.861300 19.413861 15.653414 31.546615
1349 76.339700 70.859700 68.002200 44.154420 46.092630 43.463831
1350 86.864700 77.852000 81.454500 59.225952 59.203172 66.107582
1351 39.651100 13.221400 6.4732000 5.2054977 3.3340942 0.3714402
1352 46.430300 14.808300 11.286000 7.2025527 4.5039044 0.9185730
1353 49.073100 75.538800 8.8120000 26.699102 42.160949 4.6139656
1354 59.600700 76.505900 12.710900 31.476822 45.540709 5.3046416
1355 19.232600 48.840700 19.039900 8.5501016 14.745063 4.0519934
1356 19.351800 61.101400 26.222700 13.620850 24.171885 7.5504316
1357 29.625500 65.106200 36.823800 18.042500 29.084246 13.202192
1358 30.575100 33.229400 38.080300 7.9418861 8.4448492 11.707059
1359 44.485100 35.412300 38.371700 11.711422 11.082563 12.021853
1360 78.892400 35.214400 78.851200 35.750849 21.826275 57.877153
1361 89.620500 37.643500 80.371200 44.225700 26.918996 60.431677
1362 91.421600 83.480700 81.886000 66.430784 68.371284 67.697784
1363 90.843200 84.696600 94.901900 71.749624 71.412874 95.062124
1364 92.671200 94.082000 100.00000 82.631468 86.922417 110.42610
1365 80.207000 19.634500 9.4009000 23.793096 13.865013 0.7612547
1366 80.384600 28.811100 15.155800 25.417849 16.612294 2.0120203
1367 92.140600 28.080100 34.581700 35.311869 21.319885 9.7608395
1368 88.580900 25.808900 52.255500 34.457678 19.860574 22.309284
1369 86.745000 55.983900 61.339600 42.463766 35.082667 33.433059
1370 90.429700 66.373000 65.566500 50.913789 46.193670 39.813731
1371 91.932500 72.380700 65.185400 55.208141 53.165131 40.096833
1372 11.466100 16.028500 13.048200 1.1399126 1.4914818 1.2349948
1373 10.840100 32.273100 60.916400 8.7021520 7.8425271 30.820228
1374 11.416800 56.150200 63.286100 15.890058 21.334735 35.030910
1375 37.252900 62.882400 70.819500 24.614138 29.749966 46.424013
1376 45.416500 90.460000 71.352200 43.791415 64.670413 50.736505
1377 63.273200 93.985600 71.786500 53.593826 73.862765 52.509836
1378 10.454400 74.428400 44.631800 21.546512 38.203208 19.124103
1379 17.862700 78.981900 56.309500 26.804082 44.680829 29.765852
1380 10.670000 92.632600 65.600500 37.786355 64.416103 42.804475
1381 9.8898000 92.326500 80.553200 41.629315 65.153803 65.902244
1382 12.516100 92.956200 90.339300 45.801695 67.387914 85.425923
1383 93.990800 10.281000 33.722100 34.669726 18.060504 8.8984657
1384 83.766100 15.989500 20.055700 26.290646 14.487363 3.0278725
1385 92.138800 24.019700 26.612400 33.884718 19.769444 5.7021156
1386 54.182500 12.251100 29.013200 10.586233 5.7918307 6.3380483
1387 62.491300 22.515100 36.041100 15.827046 9.9212365 10.253443
1388 61.157200 11.188200 45.480300 15.134752 7.6855120 16.090552
1389 68.362700 11.266800 57.951700 20.706442 10.161723 27.345818
1390 40.901400 33.333800 27.050900 9.2605647 9.3604634 6.0753436
1391 50.482900 34.280800 32.157100 12.678042 11.323833 8.5183126
1392 65.980300 37.638000 32.993700 20.100291 16.263534 9.1696576
1393 83.810200 43.978300 34.534800 32.540893 25.003535 10.398502
1394 79.199100 36.562500 22.202200 26.620251 19.438064 4.4614455
1395 91.854100 40.747500 23.088500 36.718972 26.097266 5.0363815
1396 92.477500 60.675800 49.227500 46.591607 40.567258 21.675863
1397 71.767300 28.960600 6.2946000 19.971399 13.821113 0.7647807
1398 72.521600 34.840500 12.881400 21.687161 16.376384 1.8188905
1399 52.643600 38.691900 8.9663000 13.040793 13.128613 1.4395504
1400 51.999900 38.237900 21.139000 13.224663 13.053533 4.1439856
1401 63.277000 41.995700 40.255300 20.551553 17.889694 13.664377
1402 8.6395000 9.5305000 13.002200 0.5529626 0.5443566 1.1037421
1403 10.547200 13.739000 17.597200 1.1266748 1.2260098 2.2060101
1404 12.371300 18.628700 18.477600 1.7225577 2.1851540 2.5847717
1405 12.565500 40.425200 19.461900 5.6106061 9.8967105 3.7241294
1406 27.464100 64.989400 22.039700 16.353650 28.332926 6.4396571
1407 58.073100 84.332900 36.243700 37.630544 56.110651 15.431617
1408 13.978300 8.7652000 5.7998000 0.7087419 0.6161587 0.2742781
1409 16.309600 13.440700 8.8613000 1.2125445 1.2903418 0.5957464
1410 24.907600 16.269100 8.6659000 2.5208209 2.2555040 0.6389985
1411 37.080500 68.768000 47.700200 22.869780 34.146557 20.969241
1412 42.616900 76.297100 58.252700 30.281182 43.942049 31.746472
1413 93.746500 89.591700 75.873300 70.764946 77.481776 58.441397
1414 100.00000 100.00000 100.00000 93.782260 100.00590 112.64500
1415 22.543100 42.800800 39.658200 8.9928282 12.212293 13.151523
1416 26.993700 48.303000 53.376400 13.103226 16.276184 23.831280
1417 29.629000 51.725700 61.321700 16.221686 19.219324 32.742139
1418 7.7131000 42.046900 43.747900 7.9318685 11.296483 15.556200
1419 9.1212000 51.641600 52.280500 11.972858 17.286284 22.932182
1420 8.4866000 59.606900 73.858600 19.851148 25.026965 50.290988
1421 13.553000 68.870700 97.137200 33.170799 36.911828 98.346348
1422 70.619000 7.3593000 45.682200 19.843652 9.8650655 16.317597
1423 84.517300 8.1092000 61.965200 31.498544 15.362274 32.212075
1424 91.329500 42.939200 91.818200 51.024012 31.582507 83.661196
1425 8.9270000 9.1360000 16.490400 0.6653509 0.5478956 1.7954853
1426 10.243400 19.898200 33.353800 2.7867311 2.7312481 8.4187574
1427 16.109200 26.665300 40.403400 4.8955681 5.0725795 12.785306
1428 14.055700 68.478700 49.675100 19.261651 31.996267 22.331520
1429 13.273500 71.326200 67.819600 24.308631 36.184648 42.689347
1430 15.230600 81.153400 78.002800 33.266032 49.067480 59.962959
1431 33.749200 84.057500 81.041600 39.084913 54.868351 65.712921
1432 50.117000 85.926600 91.095800 48.463304 60.921452 86.174841
1433 24.011100 31.876600 33.738800 6.1064940 7.1931359 9.0972421
1434 47.362800 31.792100 51.443600 13.513540 10.567773 21.326604
1435 39.447100 10.089000 29.646000 6.0873073 3.2812542 6.6157141
1436 47.088800 13.899900 31.455400 8.5602814 4.9094815 7.4990429
1437 49.887100 44.185300 38.111900 15.482774 16.144364 12.397517
1438 63.498100 50.902900 45.513900 23.863165 23.269985 17.736958
1439 14.990600 92.394000 27.631300 32.350755 62.340243 12.251478
1440 17.119400 92.252700 72.444200 39.707195 64.567333 52.537764
1441 52.468900 91.790100 86.172800 51.737325 69.420424 76.666064
1442 9.7637000 41.414500 54.841400 9.4730391 11.535533 24.574923
1443 17.562600 46.677000 63.068800 13.214885 15.239874 34.286253
1444 90.611900 46.253500 69.216900 44.017233 30.741037 43.286434
1445 91.867000 55.263100 68.972900 47.948196 37.190728 43.651007
1446 44.138500 65.127400 11.215500 19.585220 30.073196 3.6938128
1447 61.532400 66.524700 19.973600 27.132779 35.086517 5.9386014
1448 69.800000 88.641600 28.579300 45.740045 65.085963 12.210168
1449 10.333000 22.622500 31.226000 2.9526591 3.3649512 7.4385187
1450 11.893100 26.073100 31.592600 3.5680279 4.4133254 7.7008611
1451 12.620500 34.097700 47.268500 6.8242459 7.8908671 17.829471
1452 16.516300 35.150000 54.154500 8.4218781 8.8723223 23.809938
1453 52.633400 65.943100 72.918700 31.173309 35.291557 50.025035
1454 85.119200 66.757900 93.239800 56.052959 47.486460 88.729595
1455 22.102000 10.300400 24.738600 2.4127642 1.4772888 4.4686091
1456 29.707000 19.764900 27.712600 4.6639992 3.7787283 5.8765590
1457 30.387800 38.446600 37.495000 8.9939977 10.686593 11.596873
1458 38.627400 43.934200 47.105300 13.316415 14.724483 18.390832
1459 43.335400 52.070600 48.770400 17.216686 20.300344 20.225185
1460 79.798100 67.522400 54.266600 41.579529 42.696989 26.759162
1461 48.258400 45.671400 18.581700 13.744035 16.115444 3.7812202
1462 50.291100 57.251300 44.682300 20.708477 25.128235 17.630499
1463 54.665600 71.611400 69.468000 34.028660 41.367929 45.560199
1464 72.469000 81.007700 76.813500 50.335583 57.829942 58.227892
1465 30.592000 16.230900 7.3585000 3.4642268 2.7412931 0.5131209
1466 33.897500 27.705600 28.216600 6.6739236 6.4749608 6.3348300
1467 89.849700 41.941700 39.838600 36.992162 26.431036 13.534881
1468 89.184300 50.133800 48.073700 39.903814 31.189987 19.885541
1469 42.010000 41.221400 7.2199000 10.356205 12.628793 1.4042163
1470 56.889600 58.157000 62.891200 26.702547 28.155406 35.366805
1471 64.449600 63.190400 72.130300 34.633078 35.119757 48.498345
1472 84.700500 67.306600 74.516700 49.556119 45.743159 52.981309
1473 7.5747000 8.4664000 20.794600 0.8221832 0.5635996 2.9968961
1474 10.720000 9.4982000 51.961800 4.1962545 1.6751469 20.956835
1475 20.374600 8.5480000 58.422000 6.2105453 2.4302590 27.535505
1476 56.430400 15.197400 66.131000 17.178242 8.3589892 37.360435
1477 90.982600 26.058000 77.895900 42.297228 22.735595 55.849674
1478 64.538500 59.733200 8.6892000 24.849648 29.170996 2.8688762
1479 77.760700 68.993100 24.450800 37.527740 42.346359 7.7523776
1480 79.333100 84.900000 37.705900 49.616704 62.904893 16.503077
1481 84.469900 93.864200 64.208500 64.172277 79.607486 42.056168
1482 14.585800 23.291400 10.834100 2.1430082 3.2889002 1.0714886
1483 13.162000 47.262400 54.745900 11.303086 14.848673 24.984958
1484 72.935700 73.177200 65.971800 42.965651 47.493960 41.080831
1485 81.566300 77.009900 66.499500 50.608952 54.798361 42.151273
1486 89.860100 82.178400 75.248600 62.297364 65.305563 56.169004
1487 62.629300 57.106500 33.472000 24.365597 27.148046 10.677493
1488 73.867700 57.531500 46.761300 32.084286 31.136027 19.337681
1489 84.828600 90.738800 84.879900 67.824676 76.684855 74.380846
1490 11.400800 42.044400 79.193200 15.752322 13.827083 58.056079
1491 28.181700 45.612500 81.743000 19.572783 17.065684 62.898254
1492 34.692400 54.977300 88.708100 26.400735 24.602995 77.231150
1493 14.354000 53.860600 93.621900 24.832894 22.819995 88.066125
1494 15.540100 62.061800 93.971800 28.452467 29.671516 89.512853
1495 37.208500 73.009000 94.250300 37.966390 42.986139 91.791563
1496 5.1271000 39.075500 90.091900 18.571209 13.458143 79.031349
1497 40.027200 52.096800 92.084500 28.008754 23.668465 84.555637
1498 16.332900 17.208700 30.751700 2.7111238 2.3077130 7.1668557
1499 23.756800 17.800500 50.040900 5.9282413 3.6051822 19.648711
1500 58.364300 41.263300 56.215400 20.435252 17.130674 26.538900
1501 72.141900 53.041200 57.163600 31.018795 27.698126 28.335317
1502 80.562200 56.590800 67.156300 39.817046 33.821877 41.057346
1503 27.918000 80.223200 42.337500 26.913513 46.253490 18.528575
1504 31.176700 90.542200 75.835600 41.649705 63.450663 57.905034
1505 49.778400 91.260900 79.471600 48.188735 67.409294 64.273564
1506 12.044000 36.534400 28.762900 5.3293879 8.3049822 6.9159582
1507 13.510700 43.688800 37.581100 8.0171142 12.101873 11.855014
1508 14.650300 51.015500 46.902400 11.344978 16.797874 18.525444
1509 15.245500 19.431300 10.823500 1.7235530 2.3602800 0.9802305
1510 18.163700 24.351900 25.202200 3.3869153 4.0405103 4.9910594
1511 20.398200 24.112200 44.514500 5.4898535 4.6937894 15.486767
1512 3.4904000 68.121000 74.516900 24.022320 33.192847 52.118654
1513 15.155400 71.677600 80.738600 28.355820 37.829368 63.254734
1514 17.606600 78.570300 82.150400 33.125072 46.317530 66.574008
1515 33.735600 84.441700 88.661000 42.073963 56.235451 80.658020
1516 93.738000 86.447200 91.210200 73.679685 74.518115 86.819305
1517 46.690300 5.2689000 70.869500 14.431487 5.9151097 43.888433
1518 47.615700 11.164200 91.924200 21.904637 8.6340522 82.638155
1519 58.893500 9.8328000 97.065800 28.216019 11.274503 95.317703
1520 60.108800 2.7390000 66.817300 18.280190 8.0826851 38.286013
1521 77.876000 13.871600 78.481400 31.698953 15.068803 56.447673
1522 91.082000 19.719100 83.998700 43.453106 21.615335 66.709650
1523 90.958600 63.101500 89.153100 56.869188 45.536699 79.464066
1524 94.243600 74.569600 91.774600 66.670392 59.445692 86.428440
1525 6.8692000 16.370100 13.481000 0.9745813 1.4427248 1.3740563
1526 7.2170000 55.569100 89.524100 23.441545 23.384205 79.134498
1527 31.623900 61.041300 89.838400 28.731187 29.496196 80.326185
1528 42.964200 67.933800 91.827400 35.589879 37.867688 85.339001
1529 31.770200 14.215100 92.050000 18.246436 7.0719429 82.787862
1530 44.311200 22.502400 92.382600 22.385052 10.536533 84.012055
1531 46.703600 65.445500 47.491300 23.647699 31.985547 20.428281
1532 54.525600 66.196600 53.294600 27.505899 34.384257 25.504590
1533 73.531000 79.931100 52.640700 44.708332 54.972991 26.822875
1534 82.277200 82.580600 59.575900 53.175043 61.698423 34.461335
1535 19.386900 19.657600 8.9431000 2.1568935 2.6296700 0.7312202
1536 29.598700 19.597800 15.587900 3.8875573 3.4908802 1.8305217
1537 30.923500 67.776100 58.786200 22.870120 33.024527 31.248288
1538 33.879100 74.623900 69.639000 29.762181 41.711759 45.971949
1539 29.521900 16.085700 58.371700 8.1294057 4.1357133 27.799180
1540 42.801100 27.375800 66.624300 14.450357 9.2531293 38.183567
1541 48.335500 32.375700 80.082700 20.723277 13.073673 59.459846
1542 55.964400 50.420000 87.045300 30.475733 24.488095 73.570511
1543 63.587000 84.055800 89.863500 52.164913 60.973672 83.325421
1544 74.633100 95.234800 91.611500 67.321967 81.242926 88.930506
1545 62.392300 23.181600 92.219000 29.039783 14.161943 83.574719
END_DATA
CAL    

DESCRIPTOR "Argyll Device Calibration State"
ORIGINATOR "Argyll dispread"
CREATED "Wed May 01 17:28:17 2019"
DEVICE_CLASS "DISPLAY"
COLOR_REP "RGB"

BEGIN_ARGYLL_DISPCAL_ARGS
-v2 -w0.3127,0.329 -b -dmadvr -c1 -yn -Ibw
END_ARGYLL_DISPCAL_ARGS

TV_OUTPUT_ENCODING "NO"

NUMBER_OF_FIELDS 4
BEGIN_DATA_FORMAT
RGB_I RGB_R RGB_G RGB_B
END_DATA_FORMAT

NUMBER_OF_SETS 256
BEGIN_DATA
0.00000000 0.00000000 0.00000000 0.00000000
0.00392157 0.00392157 0.00392157 0.00392157
0.00784314 0.00784314 0.00784314 0.00784314
0.01176470 0.01176470 0.01176470 0.01176470
0.01568630 0.01568630 0.01568630 0.01568630
0.01960780 0.01960780 0.01960780 0.01960780
0.02352940 0.02352940 0.02352940 0.02352940
0.02745100 0.02745100 0.02745100 0.02745100
0.03137250 0.03137250 0.03137250 0.03137250
0.03529410 0.03529410 0.03529410 0.03529410
0.03921570 0.03921570 0.03921570 0.03921570
0.04313730 0.04313730 0.04313730 0.04313730
0.04705880 0.04705880 0.04705880 0.04705880
0.05098040 0.05098040 0.05098040 0.05098040
0.05490200 0.05490200 0.05490200 0.05490200
0.05882350 0.05882350 0.05882350 0.05882350
0.06274510 0.06274510 0.06274510 0.06274510
0.06666670 0.06666670 0.06666670 0.06666670
0.07058820 0.07058820 0.07058820 0.07058820
0.07450980 0.07450980 0.07450980 0.07450980
0.07843140 0.07843140 0.07843140 0.07843140
0.08235290 0.08235290 0.08235290 0.08235290
0.08627450 0.08627450 0.08627450 0.08627450
0.09019610 0.09019610 0.09019610 0.09019610
0.09411760 0.09411760 0.09411760 0.09411760
0.09803920 0.09803920 0.09803920 0.09803920
0.10196100 0.10196100 0.10196100 0.10196100
0.10588200 0.10588200 0.10588200 0.10588200
0.10980400 0.10980400 0.10980400 0.10980400
0.11372500 0.11372500 0.11372500 0.11372500
0.11764700 0.11764700 0.11764700 0.11764700
0.12156900 0.12156900 0.12156900 0.12156900
0.12549000 0.12549000 0.12549000 0.12549000
0.12941200 0.12941200 0.12941200 0.12941200
0.13333300 0.13333300 0.13333300 0.13333300
0.13725500 0.13725500 0.13725500 0.13725500
0.14117600 0.14117600 0.14117600 0.14117600
0.14509800 0.14509800 0.14509800 0.14509800
0.14902000 0.14902000 0.14902000 0.14902000
0.15294100 0.15294100 0.15294100 0.15294100
0.15686300 0.15686300 0.15686300 0.15686300
0.16078400 0.16078400 0.16078400 0.16078400
0.16470600 0.16470600 0.16470600 0.16470600
0.16862700 0.16862700 0.16862700 0.16862700
0.17254900 0.17254900 0.17254900 0.17254900
0.17647100 0.17647100 0.17647100 0.17647100
0.18039200 0.18039200 0.18039200 0.18039200
0.18431400 0.18431400 0.18431400 0.18431400
0.18823500 0.18823500 0.18823500 0.18823500
0.19215700 0.19215700 0.19215700 0.19215700
0.19607800 0.19607800 0.19607800 0.19607800
0.20000000 0.20000000 0.20000000 0.20000000
0.20392200 0.20392200 0.20392200 0.20392200
0.20784300 0.20784300 0.20784300 0.20784300
0.21176500 0.21176500 0.21176500 0.21176500
0.21568600 0.21568600 0.21568600 0.21568600
0.21960800 0.21960800 0.21960800 0.21960800
0.22352900 0.22352900 0.22352900 0.22352900
0.22745100 0.22745100 0.22745100 0.22745100
0.23137300 0.23137300 0.23137300 0.23137300
0.23529400 0.23529400 0.23529400 0.23529400
0.23921600 0.23921600 0.23921600 0.23921600
0.24313700 0.24313700 0.24313700 0.24313700
0.24705900 0.24705900 0.24705900 0.24705900
0.25098000 0.25098000 0.25098000 0.25098000
0.25490200 0.25490200 0.25490200 0.25490200
0.25882400 0.25882400 0.25882400 0.25882400
0.26274500 0.26274500 0.26274500 0.26274500
0.26666700 0.26666700 0.26666700 0.26666700
0.27058800 0.27058800 0.27058800 0.27058800
0.27451000 0.27451000 0.27451000 0.27451000
0.27843100 0.27843100 0.27843100 0.27843100
0.28235300 0.28235300 0.28235300 0.28235300
0.28627500 0.28627500 0.28627500 0.28627500
0.29019600 0.29019600 0.29019600 0.29019600
0.29411800 0.29411800 0.29411800 0.29411800
0.29803900 0.29803900 0.29803900 0.29803900
0.30196100 0.30196100 0.30196100 0.30196100
0.30588200 0.30588200 0.30588200 0.30588200
0.30980400 0.30980400 0.30980400 0.30980400
0.31372500 0.31372500 0.31372500 0.31372500
0.31764700 0.31764700 0.31764700 0.31764700
0.32156900 0.32156900 0.32156900 0.32156900
0.32549000 0.32549000 0.32549000 0.32549000
0.32941200 0.32941200 0.32941200 0.32941200
0.33333300 0.33333300 0.33333300 0.33333300
0.33725500 0.33725500 0.33725500 0.33725500
0.34117600 0.34117600 0.34117600 0.34117600
0.34509800 0.34509800 0.34509800 0.34509800
0.34902000 0.34902000 0.34902000 0.34902000
0.35294100 0.35294100 0.35294100 0.35294100
0.35686300 0.35686300 0.35686300 0.35686300
0.36078400 0.36078400 0.36078400 0.36078400
0.36470600 0.36470600 0.36470600 0.36470600
0.36862700 0.36862700 0.36862700 0.36862700
0.37254900 0.37254900 0.37254900 0.37254900
0.37647100 0.37647100 0.37647100 0.37647100
0.38039200 0.38039200 0.38039200 0.38039200
0.38431400 0.38431400 0.38431400 0.38431400
0.38823500 0.38823500 0.38823500 0.38823500
0.39215700 0.39215700 0.39215700 0.39215700
0.39607800 0.39607800 0.39607800 0.39607800
0.40000000 0.40000000 0.40000000 0.40000000
0.40392200 0.40392200 0.40392200 0.40392200
0.40784300 0.40784300 0.40784300 0.40784300
0.41176500 0.41176500 0.41176500 0.41176500
0.41568600 0.41568600 0.41568600 0.41568600
0.41960800 0.41960800 0.41960800 0.41960800
0.42352900 0.42352900 0.42352900 0.42352900
0.42745100 0.42745100 0.42745100 0.42745100
0.43137300 0.43137300 0.43137300 0.43137300
0.43529400 0.43529400 0.43529400 0.43529400
0.43921600 0.43921600 0.43921600 0.43921600
0.44313700 0.44313700 0.44313700 0.44313700
0.44705900 0.44705900 0.44705900 0.44705900
0.45098000 0.45098000 0.45098000 0.45098000
0.45490200 0.45490200 0.45490200 0.45490200
0.45882400 0.45882400 0.45882400 0.45882400
0.46274500 0.46274500 0.46274500 0.46274500
0.46666700 0.46666700 0.46666700 0.46666700
0.47058800 0.47058800 0.47058800 0.47058800
0.47451000 0.47451000 0.47451000 0.47451000
0.47843100 0.47843100 0.47843100 0.47843100
0.48235300 0.48235300 0.48235300 0.48235300
0.48627500 0.48627500 0.48627500 0.48627500
0.49019600 0.49019600 0.49019600 0.49019600
0.49411800 0.49411800 0.49411800 0.49411800
0.49803900 0.49803900 0.49803900 0.49803900
0.50196100 0.50196100 0.50196100 0.50196100
0.50588200 0.50588200 0.50588200 0.50588200
0.50980400 0.50980400 0.50980400 0.50980400
0.51372500 0.51372500 0.51372500 0.51372500
0.51764700 0.51764700 0.51764700 0.51764700
0.52156900 0.52156900 0.52156900 0.52156900
0.52549000 0.52549000 0.52549000 0.52549000
0.52941200 0.52941200 0.52941200 0.52941200
0.53333300 0.53333300 0.53333300 0.53333300
0.53725500 0.53725500 0.53725500 0.53725500
0.54117600 0.54117600 0.54117600 0.54117600
0.54509800 0.54509800 0.54509800 0.54509800
0.54902000 0.54902000 0.54902000 0.54902000
0.55294100 0.55294100 0.55294100 0.55294100
0.55686300 0.55686300 0.55686300 0.55686300
0.56078400 0.56078400 0.56078400 0.56078400
0.56470600 0.56470600 0.56470600 0.56470600
0.56862700 0.56862700 0.56862700 0.56862700
0.57254900 0.57254900 0.57254900 0.57254900
0.57647100 0.57647100 0.57647100 0.57647100
0.58039200 0.58039200 0.58039200 0.58039200
0.58431400 0.58431400 0.58431400 0.58431400
0.58823500 0.58823500 0.58823500 0.58823500
0.59215700 0.59215700 0.59215700 0.59215700
0.59607800 0.59607800 0.59607800 0.59607800
0.60000000 0.60000000 0.60000000 0.60000000
0.60392200 0.60392200 0.60392200 0.60392200
0.60784300 0.60784300 0.60784300 0.60784300
0.61176500 0.61176500 0.61176500 0.61176500
0.61568600 0.61568600 0.61568600 0.61568600
0.61960800 0.61960800 0.61960800 0.61960800
0.62352900 0.62352900 0.62352900 0.62352900
0.62745100 0.62745100 0.62745100 0.62745100
0.63137300 0.63137300 0.63137300 0.63137300
0.63529400 0.63529400 0.63529400 0.63529400
0.63921600 0.63921600 0.63921600 0.63921600
0.64313700 0.64313700 0.64313700 0.64313700
0.64705900 0.64705900 0.64705900 0.64705900
0.65098000 0.65098000 0.65098000 0.65098000
0.65490200 0.65490200 0.65490200 0.65490200
0.65882400 0.65882400 0.65882400 0.65882400
0.66274500 0.66274500 0.66274500 0.66274500
0.66666700 0.66666700 0.66666700 0.66666700
0.67058800 0.67058800 0.67058800 0.67058800
0.67451000 0.67451000 0.67451000 0.67451000
0.67843100 0.67843100 0.67843100 0.67843100
0.68235300 0.68235300 0.68235300 0.68235300
0.68627500 0.68627500 0.68627500 0.68627500
0.69019600 0.69019600 0.69019600 0.69019600
0.69411800 0.69411800 0.69411800 0.69411800
0.69803900 0.69803900 0.69803900 0.69803900
0.70196100 0.70196100 0.70196100 0.70196100
0.70588200 0.70588200 0.70588200 0.70588200
0.70980400 0.70980400 0.70980400 0.70980400
0.71372500 0.71372500 0.71372500 0.71372500
0.71764700 0.71764700 0.71764700 0.71764700
0.72156900 0.72156900 0.72156900 0.72156900
0.72549000 0.72549000 0.72549000 0.72549000
0.72941200 0.72941200 0.72941200 0.72941200
0.73333300 0.73333300 0.73333300 0.73333300
0.73725500 0.73725500 0.73725500 0.73725500
0.74117600 0.74117600 0.74117600 0.74117600
0.74509800 0.74509800 0.74509800 0.74509800
0.74902000 0.74902000 0.74902000 0.74902000
0.75294100 0.75294100 0.75294100 0.75294100
0.75686300 0.75686300 0.75686300 0.75686300
0.76078400 0.76078400 0.76078400 0.76078400
0.76470600 0.76470600 0.76470600 0.76470600
0.76862700 0.76862700 0.76862700 0.76862700
0.77254900 0.77254900 0.77254900 0.77254900
0.77647100 0.77647100 0.77647100 0.77647100
0.78039200 0.78039200 0.78039200 0.78039200
0.78431400 0.78431400 0.78431400 0.78431400
0.78823500 0.78823500 0.78823500 0.78823500
0.79215700 0.79215700 0.79215700 0.79215700
0.79607800 0.79607800 0.79607800 0.79607800
0.80000000 0.80000000 0.80000000 0.80000000
0.80392200 0.80392200 0.80392200 0.80392200
0.80784300 0.80784300 0.80784300 0.80784300
0.81176500 0.81176500 0.81176500 0.81176500
0.81568600 0.81568600 0.81568600 0.81568600
0.81960800 0.81960800 0.81960800 0.81960800
0.82352900 0.82352900 0.82352900 0.82352900
0.82745100 0.82745100 0.82745100 0.82745100
0.83137300 0.83137300 0.83137300 0.83137300
0.83529400 0.83529400 0.83529400 0.83529400
0.83921600 0.83921600 0.83921600 0.83921600
0.84313700 0.84313700 0.84313700 0.84313700
0.84705900 0.84705900 0.84705900 0.84705900
0.85098000 0.85098000 0.85098000 0.85098000
0.85490200 0.85490200 0.85490200 0.85490200
0.85882400 0.85882400 0.85882400 0.85882400
0.86274500 0.86274500 0.86274500 0.86274500
0.86666700 0.86666700 0.86666700 0.86666700
0.87058800 0.87058800 0.87058800 0.87058800
0.87451000 0.87451000 0.87451000 0.87451000
0.87843100 0.87843100 0.87843100 0.87843100
0.88235300 0.88235300 0.88235300 0.88235300
0.88627500 0.88627500 0.88627500 0.88627500
0.89019600 0.89019600 0.89019600 0.89019600
0.89411800 0.89411800 0.89411800 0.89411800
0.89803900 0.89803900 0.89803900 0.89803900
0.90196100 0.90196100 0.90196100 0.90196100
0.90588200 0.90588200 0.90588200 0.90588200
0.90980400 0.90980400 0.90980400 0.90980400
0.91372500 0.91372500 0.91372500 0.91372500
0.91764700 0.91764700 0.91764700 0.91764700
0.92156900 0.92156900 0.92156900 0.92156900
0.92549000 0.92549000 0.92549000 0.92549000
0.92941200 0.92941200 0.92941200 0.92941200
0.93333300 0.93333300 0.93333300 0.93333300
0.93725500 0.93725500 0.93725500 0.93725500
0.94117600 0.94117600 0.94117600 0.94117600
0.94509800 0.94509800 0.94509800 0.94509800
0.94902000 0.94902000 0.94902000 0.94902000
0.95294100 0.95294100 0.95294100 0.95294100
0.95686300 0.95686300 0.95686300 0.95686300
0.96078400 0.96078400 0.96078400 0.96078400
0.96470600 0.96470600 0.96470600 0.96470600
0.96862700 0.96862700 0.96862700 0.96862700
0.97254900 0.97254900 0.97254900 0.97254900
0.97647100 0.97647100 0.97647100 0.97647100
0.98039200 0.98039200 0.98039200 0.98039200
0.98431400 0.98431400 0.98431400 0.98431400
0.98823500 0.98823500 0.98823500 0.98823500
0.99215700 0.99215700 0.99215700 0.99215700
0.99607800 0.99607800 0.99607800 0.99607800
1.00000000 1.00000000 1.00000000 1.00000000
END_DATA
